bag_ts,header_stamp,ax,ay,az,wx,wy,wz
1780294752.977111816,1780294752.976664543,0.04196999967098236,-0.186831995844841,9.77711296081543,-0.001004279932419198,0.010818021460493427,0.0007235960823867077
1780294752.983940125,1780294752.982679367,0.038812000304460526,-0.18449600040912628,9.781944274902344,-0.001004279932419198,0.010818021460493427,0.0007235960823867077
1780294752.988707066,1780294752.987185478,0.04367800056934357,-0.18220500648021698,9.789939880371094,-0.0010013652144386133,0.012059735922969267,0.0007404210056853286
1780294752.992997885,1780294752.992535830,0.03884999826550484,-0.18696700036525726,9.786696434020996,0.0008280889398029161,0.012056070955579194,0.0007249748664215127
1780294752.997258425,1780294752.996672869,0.03401099890470505,-0.18930299580097198,9.781891822814941,0.001457960802280751,0.011388692149206337,0.003163601307527527
1780294753.002638817,1780294753.002100468,0.04123299941420555,-0.1821260005235672,9.784363746643066,0.0014511365820258667,0.010779170517504587,0.0025421417441525494
1780294753.007688761,1780294753.006664276,0.0435510016977787,-0.1843940019607544,9.774748802185059,0.0002232101549538207,0.009551209825640202,0.0019225848845403999
1780294753.012339354,1780294753.011987686,0.045180998742580414,-0.18685400485992432,9.778697967529297,0.0002232101549538207,0.009551209825640202,0.0019225848845403999
1780294753.018757582,1780294753.017562151,0.04360499978065491,-0.19170600175857544,9.781825065612793,0.00022610739919068408,0.010792924288116044,0.001939392447877817
1780294753.023018122,1780294753.021711826,0.04119199886918068,-0.18446199595928192,9.77954387664795,0.00021535617040848825,0.010815578842431579,0.0007132986345379699
1780294753.027255774,1780294753.026676178,0.04119199886918068,-0.18446199595928192,9.77954387664795,0.0014418339834894253,0.011422673460530988,0.001324460489989885
1780294753.032171011,1780294753.031733274,0.038819000124931335,-0.17488199472427368,9.782082557678223,0.0008251916468021167,0.010814374178157464,0.0007081498781043104
1780294753.037023544,1780294753.036659718,0.034056998789310455,-0.1805579960346222,9.78680419921875,0.0014428637477798736,0.009548783852335164,0.0019122875017102436
1780294753.041934490,1780294753.041666746,0.029218999668955803,-0.18209299445152283,9.782011985778809,-0.0003836931784794377,0.010794145597146969,0.001944541139292895
1780294753.047024727,1780294753.046672583,0.031613998115062714,-0.18690000474452972,9.78193473815918,-0.0009935112298932807,0.010795367946475194,0.0019496898307079732
1780294753.052185774,1780294753.051713467,0.036389999091625214,-0.18926900625228882,9.779491424560547,-0.001004279932419198,0.010818021460493427,0.0007235960823867077
1780294753.057016134,1780294753.056654215,0.033913999795913696,-0.1867309957742691,9.7699613571167,-0.0022131646276635896,0.010797793919780231,0.001959987343575292
1780294753.062300682,1780294753.061838150,0.0435279980301857,-0.18836599588394165,9.772298812866211,-0.0009935112298932807,0.010795367946475194,0.0019496898307079732
1780294753.066681147,1780294753.066380978,0.04836999997496605,-0.1820240020751953,9.777161598205566,-0.001614097983833041,0.010819226124767541,0.0007287447738017858
1780294753.072381258,1780294753.071759462,0.05070799961686134,-0.18432599306106567,9.769939422607422,0.0008388401523304666,0.01203341640126366,0.0019510686147427784
1780294753.077260971,1780294753.076635122,0.038649000227451324,-0.19143599271774292,9.76269817352295,0.0026736873378155565,0.012018442361918581,0.0025486693496395954
1780294753.082855463,1780294753.082211256,0.04116800054907799,-0.18923500180244446,9.777080535888672,0.0008402887663215755,0.012654282475028636,0.0019594811089013796
1780294753.087326527,1780294753.086655855,0.03567599877715111,-0.1902170032262802,9.789852142333984,-0.001412460018872044,0.011654191624783278,0.0003295530835913043
1780294753.093866110,1780294753.092254400,0.036455001682043076,-0.18216000497341156,9.786772727966309,0.0002070833199078496,0.009585191136964854,8.344418891259756e-05
1780294753.097369671,1780294753.096658468,0.038787998259067535,-0.1820479929447174,9.778788566589355,-0.0001869073064203258,0.00955958733980207,0.001517319386030976
1780294753.102637529,1780294753.101677418,0.03401799872517586,-0.17969000339508057,9.78203010559082,-0.0009935112298932807,0.010795367946475194,0.0019496898307079732
1780294753.107923031,1780294753.106687784,0.036354001611471176,-0.18439500033855438,9.774773597717285,-0.002214613501729024,0.010176945531069365,0.001951574849416691
1780294753.112772226,1780294753.111696959,0.04606800153851509,-0.18459700047969818,9.78909969329834,-0.0009827600173657302,0.010772713392159659,0.0031757837090664012
1780294753.117737770,1780294753.116692781,0.041189998388290405,-0.18686600029468536,9.779509544372559,0.00022219786440709385,0.011425117118890136,0.001334758002857204
1780294753.122391462,1780294753.121665478,0.037199001759290695,-0.18527500331401825,9.780344009399414,-0.0018173764976371109,0.010819645364579689,0.0007304552176197439
1780294753.127328873,1780294753.126726627,0.034015998244285583,-0.18209299445152283,9.781994819641113,-0.0009964259478738656,0.009553653483999352,0.001932864842390771
1780294753.133783579,1780294753.131394386,0.038777999579906464,-0.1772180050611496,9.777262687683105,0.00021245892617162486,0.009573864379955737,0.000696491071200553
1780294753.136976719,1780294753.136141539,0.04603099822998047,-0.1821260005235672,9.784347534179688,0.001435009763234541,0.01081315286912654,0.0007030186116690177
1780294753.142750502,1780294753.141724825,0.04601199924945831,-0.17968900501728058,9.781989097595215,0.0008251916468021167,0.010814374178157464,0.0007081498781043104
1780294753.147265673,1780294753.146387815,0.04519600048661232,-0.18527400493621826,9.780317306518555,-0.00018758798594783568,0.010808841877112783,0.0011254406932602154
1780294753.152580023,1780294753.151672363,0.05080699920654297,-0.1844950020313263,9.781904220581055,-0.0009906140019110628,0.012037082408951034,0.0019665148190251753
1780294753.157574415,1780294753.156672955,0.041228000074625015,-0.18933700025081635,9.784259796142578,0.00022902210091662345,0.012034638750591886,0.001956217436195019
1780294753.163940668,1780294753.161896944,0.03884899988770485,-0.1893710047006607,9.786662101745605,0.0014457609757620915,0.010790498314811004,0.001929094935010498
1780294753.168206930,1780294753.166534185,0.04839000105857849,-0.18205800652503967,9.77955436706543,0.001435009763234541,0.01081315286912654,0.0007030186116690177
1780294753.172620296,1780294753.171664476,0.03883900120854378,-0.18374000489711761,9.785146713256836,0.001435009763234541,0.01081315286912654,0.0007030186116690177
1780294753.177611351,1780294753.176959038,0.038874998688697815,-0.17979100346565247,9.789193153381348,0.00021535617040848825,0.010815578842431579,0.0007132986345379699
1780294753.183431625,1780294753.181678057,0.036479998379945755,-0.17498399317264557,9.789270401000977,0.0008251916468021167,0.010814374178157464,0.0007081498781043104
1780294753.187303066,1780294753.186799288,0.03401799872517586,-0.17969000339508057,9.78203010559082,-0.0003944444235162789,0.010816800151462502,0.0007184473259530482
1780294753.192933321,1780294753.192182779,0.03399299830198288,-0.18686600029468536,9.779534339904785,-0.0022253647142565745,0.0101995990450876,0.0007254810360768441
1780294753.197749853,1780294753.196852446,0.04199500009417534,-0.1884790062904358,9.780282020568848,-0.001007177160401416,0.009576306998017585,0.0007067710940695054
1780294753.202343225,1780294753.201726198,0.043570999056100845,-0.18442800641059875,9.777142524719238,0.00021535617040848825,0.010815578842431579,0.0007132986345379699
1780294753.207339525,1780294753.206686020,0.037161000072956085,-0.18360500037670135,9.775580406188965,0.0010313673885884046,0.012055669400821156,0.0007232644226035547
1780294753.212599754,1780294753.211926222,0.03877300024032593,-0.18442900478839874,9.777158737182617,0.00022654373888971157,0.013287679970076844,0.0013599954853330074
1780294753.217375517,1780294753.216812134,0.04598600044846535,-0.18926900625228882,9.779458999633789,-0.0003754028542350778,0.012024533302613693,0.0025744130667893113
1780294753.225873947,1780294753.224405050,0.04840800166130066,-0.1844950020313263,9.781912803649902,-0.0009910502765915089,0.009542325686692934,0.002545911781569985
1780294753.227135658,1780294753.226731777,0.041172999888658524,-0.1820250004529953,9.777185440063477,-0.0009964259478738656,0.009553653483999352,0.001932864842390771
1780294753.233228683,1780294753.231645584,0.035585999488830566,-0.1868550032377243,9.778730392456055,0.00022902210091662345,0.012034638750591886,0.001956217436195019
1780294753.238020897,1780294753.236870289,0.03872799873352051,-0.19157099723815918,9.772269248962402,0.00024225169172573113,0.010758942976791393,0.003778533005341134
1780294753.242317200,1780294753.241890192,0.03879300132393837,-0.18446199595928192,9.77955150604248,0.00024225169172573113,0.010758942976791393,0.003778533005341134
1780294753.250859976,1780294753.250501156,0.043609000742435455,-0.18689900636672974,9.781893730163574,0.0008222769938401133,0.009572659715681622,0.0006913423797854748
1780294753.252059698,1780294753.251656532,0.04118800163269043,-0.18926900625228882,9.779475212097168,0.00020170769738942903,0.00959653557902808,-0.0005295852521409272
1780294753.257313967,1780294753.256820679,0.042048998177051544,-0.18696700036525726,9.786684036254883,-0.00019476129096565823,0.010823938671539336,0.00030803316853783666
1780294753.262092113,1780294753.261155128,0.043589998036623,-0.18446199595928192,9.779536247253418,-0.0009949772688641753,0.010174501872710217,0.001941277336549372
1780294753.268313646,1780294753.266828775,0.03889000043272972,-0.1870349943637848,9.791481971740723,0.00022610739919068408,0.010792924288116044,0.001939392447877817
1780294753.274085283,1780294753.271810770,0.04356500133872032,-0.19163799285888672,9.777039527893066,0.00022465878519957504,0.010172075899405178,0.0019309799537192158
1780294753.277122736,1780294753.276697874,0.0459510013461113,-0.18199099600315094,9.774775505065918,-0.001004279932419198,0.010818021460493427,0.0007235960823867077
1780294753.284650087,1780294753.281762838,0.045205000787973404,-0.19010399281978607,9.781842231750488,-0.0009980665617355196,0.010389019498475826,0.001535383628507538
1780294753.288262367,1780294753.286342382,0.04358899965882301,-0.18686500191688538,9.779501914978027,-0.0009935112298932807,0.010795367946475194,0.0019496898307079732
1780294753.293562174,1780294753.292771101,0.0436519980430603,-0.18216000497341156,9.786748886108398,-0.0009881356236295055,0.010784040149168776,0.0025627367698871873
1780294753.297090054,1780294753.296647072,0.03876800090074539,-0.1916390061378479,9.777055740356445,0.0002275734869255144,0.01141379036188102,0.001947804942036418
1780294753.302639246,1780294753.301767826,0.03401099890470505,-0.18930299580097198,9.781891822814941,0.00023148302170910467,0.010781596490809627,0.002552439387057031
1780294753.309451103,1780294753.306647301,0.0403750017285347,-0.18042300641536713,9.77721118927002,-0.0005856103332284879,0.00829602091237812,0.0027300090336709556
1780294753.313686371,1780294753.311625957,0.036378998309373856,-0.1772180050611496,9.777271270751953,0.0008301309783854457,0.008308290698890247,0.0019006112048081194
1780294753.317855358,1780294753.316655874,0.04673599824309349,-0.1755480021238327,9.772472381591797,-0.0014000682575014205,0.010796170015693968,0.0019531281433236747
1780294753.322174549,1780294753.321631432,0.036378998309373856,-0.1772180050611496,9.777271270751953,-0.0016004319883063246,0.012038286032927848,0.0019716635104402537
1780294753.329032898,1780294753.326645613,0.038770999759435654,-0.186831995844841,9.777124404907227,-0.0009935112298932807,0.010795367946475194,0.0019496898307079732
1780294753.332623720,1780294753.331781626,0.04361499845981598,-0.17728500068187714,9.782032012939453,0.00023396138373601652,0.009528555271324669,0.0031486613379190427
1780294753.337684393,1780294753.336235046,0.04355200007557869,-0.18199099600315094,9.774784088134766,0.00022610739919068408,0.010792924288116044,0.001939392447877817
1780294753.346635342,1780294753.344544411,0.04674400016665459,-0.1819790005683899,9.773975372314453,0.0014476982694101655,0.011618307609695799,0.001940317402215228
1780294753.350025892,1780294753.347781420,0.043595001101493835,-0.17725199460983276,9.779640197753906,-0.0009935112298932807,0.010795367946475194,0.0019496898307079732
1780294753.352266073,1780294753.351469755,0.03399699926376343,-0.18205900490283966,9.779603004455566,-0.001004279932419198,0.010818021460493427,0.0007235960823867077
1780294753.357178688,1780294753.356629133,0.04358899965882301,-0.18686500191688538,9.779501914978027,0.0002168048006542426,0.011436444916196553,0.0007217111286965711
1780294753.363051176,1780294753.361774921,0.05088299885392189,-0.18943700194358826,9.791406631469727,-0.0009974382221659471,0.011427543092195175,0.0013450553856873603
1780294753.369462490,1780294753.369093180,0.034053001552820206,-0.18696799874305725,9.786712646484375,-0.0009918706160316267,0.009960000891701418,0.002347171044591206
1780294753.373740196,1780294753.371636152,0.04362799972295761,-0.1869329959154129,9.784285545349121,-0.0009881356236295055,0.010784040149168776,0.0025627367698871873
1780294753.377029896,1780294753.376626968,0.04360700026154518,-0.18930299580097198,9.781859397888184,-0.0009935112298932807,0.010795367946475194,0.0019496898307079732
1780294753.382453442,1780294753.381717205,0.041228998452425,-0.1869329959154129,9.784295082092285,-0.0009906140019110628,0.012037082408951034,0.0019665148190251753
1780294753.387664318,1780294753.386798143,0.041228998452425,-0.1869329959154129,9.784295082092285,0.0002275734869255144,0.01141379036188102,0.001947804942036418
1780294753.392035007,1780294753.391232967,0.04037399962544441,-0.1820250004529953,9.777188301086426,0.00022804472534804855,0.011620733583000838,0.0019506149150825469
1780294753.397828817,1780294753.396832705,0.04125100001692772,-0.1845639944076538,9.786722183227539,-0.0003944444235162789,0.010816800151462502,0.0007184473259530482
1780294753.402852774,1780294753.402328730,0.03879600018262863,-0.17965500056743622,9.779622077941895,0.000200241625909244,0.008975669505263104,-0.0005379977462995284
1780294753.407458782,1780294753.406961918,0.043609000742435455,-0.18689900636672974,9.781893730163574,-0.0010111041526740822,0.010208483184034868,0.00010213666530353772
1780294753.414380550,1780294753.411633253,0.03155599907040596,-0.18439500033855438,9.774789810180664,-0.0003822445644883287,0.011414993985857833,0.0019529536334514962
1780294753.417609215,1780294753.417032242,0.032322000712156296,-0.185139998793602,9.770787239074707,0.00023095942707398792,0.012862448045476678,0.0019674223483828013
1780294753.429630518,1780294753.428913116,0.038752999156713486,-0.18439500033855438,9.774765968322754,0.00022902210091662345,0.012034638750591886,0.001956217436195019
1780294753.433857203,1780294753.433305740,0.03713199868798256,-0.18676400184631348,9.772343635559082,0.00021827087213442762,0.012057293304907419,0.000730123557836591
1780294753.435318708,1780294753.434837341,0.03395700082182884,-0.18199199438095093,9.774816513061523,0.001435009763234541,0.01081315286912654,0.0007030186116690177
1780294753.437279224,1780294753.436748505,0.02923700027167797,-0.18453100323677063,9.784368515014648,0.00022610739919068408,0.010792924288116044,0.001939392447877817
1780294753.442120314,1780294753.441647768,0.036414001137018204,-0.18449600040912628,9.781952857971191,-0.0009984679864563951,0.01330145038544511,0.0007572459940025309
1780294753.449939966,1780294753.446627140,0.036389999091625214,-0.18926900625228882,9.779491424560547,-0.0003944444235162789,0.010816800151462502,0.0007184473259530482
1780294753.457456589,1780294753.456553221,0.04682699963450432,-0.19655799865722656,9.78493595123291,-0.001001661894225033,0.010396559573310697,0.001126697242362198
1780294753.458727121,1780294753.458157778,0.0435669980943203,-0.18923500180244446,9.777073860168457,0.00022610739919068408,0.010792924288116044,0.001939392447877817
1780294753.464886189,1780294753.464455128,0.03641200065612793,-0.18690000474452972,9.7819185256958,0.00021535617040848825,0.010815578842431579,0.0007132986345379699
1780294753.468161106,1780294753.467677116,0.03408899903297424,-0.1918420046567917,9.791428565979004,-0.00037583919393410526,0.009529776580355592,0.003153810029334121
1780294753.475870609,1780294753.471131086,0.034033000469207764,-0.1869339942932129,9.784318923950195,-0.00038268090418735616,0.008920255988951145,0.0025323678909389283
1780294753.482956171,1780294753.477701902,0.04521000012755394,-0.1836950033903122,9.78193473815918,0.0010363067201717337,0.00954958592155394,0.0019157082593089971
1780294753.491130829,1780294753.490762949,0.04364800080657005,-0.18696700036525726,9.786680221557617,0.00021535617040848825,0.010815578842431579,0.0007132986345379699
1780294753.495328903,1780294753.494258881,0.04129200056195259,-0.1822279989719391,9.791542053222656,-0.0003929957770158792,0.011437648540173368,0.0007268598201116493
1780294753.495386124,1780294753.494664431,0.03883099928498268,-0.1869329959154129,9.784302711486816,0.00023191934515348685,0.013276353213067726,0.001973042294475059
1780294753.504475355,1780294753.499812841,0.034014999866485596,-0.18449600040912628,9.781959533691406,0.0002168048006542426,0.011436444916196553,0.0007217111286965711
1780294753.504529476,1780294753.501212597,0.04197400063276291,-0.18042300641536713,9.777204513549805,0.001435009763234541,0.01081315286912654,0.0007030186116690177
1780294753.506462097,1780294753.506057262,0.04359399899840355,-0.17965500056743622,9.779605865478516,0.0014403853694983162,0.010801825071820122,0.0013160655508482318
1780294753.513032675,1780294753.512516975,0.04367100074887276,-0.18219399452209473,9.789142608642578,0.00021535617040848825,0.010815578842431579,0.0007132986345379699
1780294753.517970800,1780294753.517465830,0.03879300132393837,-0.18446199595928192,9.77955150604248,0.00021827087213442762,0.012057293304907419,0.000730123557836591
1780294753.527235031,1780294753.526699305,0.033973000943660736,-0.186831995844841,9.777140617370605,0.00022610739919068408,0.010792924288116044,0.001939392447877817
1780294753.528185606,1780294753.527923107,0.038731999695301056,-0.18676400184631348,9.772337913513184,0.00022610739919068408,0.010792924288116044,0.001939392447877817
1780294753.532926798,1780294753.532308102,0.04123099893331528,-0.18453000485897064,9.784329414367676,-0.0003865904389709464,0.009552431134671127,0.0019277161509756928
1780294753.537380457,1780294753.536947727,0.048367999494075775,-0.18522900342941284,9.777114868164062,-0.0009944885892072103,0.010381462778884146,0.0019440873095955009
1780294753.543763638,1780294753.543152332,0.043591998517513275,-0.18205900490283966,9.779570579528809,0.0002275734869255144,0.01141379036188102,0.001947804942036418
1780294753.547382355,1780294753.546677589,0.038816001266241074,-0.17968900501728058,9.782013893127441,0.0014320949802353751,0.009571438406650697,0.0006861936233518154
1780294753.552252054,1780294753.551671267,0.03725700080394745,-0.17895600199699402,9.78681755065918,0.0006261717850538659,0.009557964476013108,0.0015104428908367356
1780294753.562247038,1780294753.556642294,0.041211001574993134,-0.18449600040912628,9.781936645507812,0.0002232101549538207,0.009551209825640202,0.0019225848845403999
1780294753.562991619,1780294753.561668634,0.038823001086711884,-0.18852399289608002,9.783482551574707,0.00021535617040848825,0.010815578842431579,0.0007132986345379699
1780294753.567122936,1780294753.566618443,0.03641999885439873,-0.17488299310207367,9.78209114074707,0.00021535617040848825,0.010815578842431579,0.0007132986345379699
1780294753.572635651,1780294753.571822882,0.03640199825167656,-0.17244499921798706,9.779733657836914,0.00022610739919068408,0.010792924288116044,0.001939392447877817
1780294753.577592611,1780294753.576836109,0.04361199960112572,-0.18209199607372284,9.781963348388672,0.0008359429243482484,0.01079171962384193,0.0019342436264255761
1780294753.586210728,1780294753.584564209,0.03875499963760376,-0.18199099600315094,9.774800300598145,-0.0009881356236295055,0.010784040149168776,0.0025627367698871873
1780294753.587977886,1780294753.586657763,0.04044099897146225,-0.18053500354290009,9.785187721252441,0.00022059216552359166,0.009972671712822932,0.0015194835945277468
1780294753.592206240,1780294753.591647387,0.04364499822258949,-0.19177399575710297,9.78661060333252,-0.000998886836157056,0.01080669470348431,0.001336642891528759
1780294753.600209951,1780294753.597169638,0.04602700099349022,-0.1869329959154129,9.78427791595459,0.00022610739919068408,0.010792924288116044,0.001939392447877817
1780294753.602796793,1780294753.602496862,0.03647499904036522,-0.18219399452209473,9.789166450500488,0.00021245892617162486,0.009573864379955737,0.000696491071200553
1780294753.607079983,1780294753.606665850,0.04361199960112572,-0.18209199607372284,9.781963348388672,0.0002139075564173792,0.010194729413423411,0.0007048861403793688
1780294753.612105846,1780294753.611814022,0.04835600033402443,-0.18360400199890137,9.775542259216309,-0.0009906140019110628,0.012037082408951034,0.0019665148190251753
1780294753.617035151,1780294753.616693735,0.041189998388290405,-0.18686600029468536,9.779509544372559,0.0002304707311623778,0.01265550482435686,0.0019646299303536204
1780294753.622711658,1780294753.621674061,0.043547000735998154,-0.1892009973526001,9.774680137634277,0.0014486756287240949,0.012032212777286846,0.0019459199233277003
1780294753.627883434,1780294753.627209425,0.04838300123810768,-0.19167199730873108,9.77941608428955,0.00022902210091662345,0.012034638750591886,0.001956217436195019
1780294753.632582664,1780294753.631919384,0.04840800166130066,-0.1844950020313263,9.781912803649902,0.00022465878519957504,0.010172075899405178,0.0019309799537192158
1780294753.637273312,1780294753.636607409,0.0420060008764267,-0.19170600175857544,9.781829833984375,-0.0009964259478738656,0.009553653483999352,0.001932864842390771
1780294753.642100096,1780294753.641648769,0.04594599828124046,-0.1892009973526001,9.774672508239746,0.0002275734869255144,0.01141379036188102,0.001947804942036418
1780294753.647056818,1780294753.646666288,0.0388059988617897,-0.1933089941740036,9.781817436218262,0.0002218487958988009,0.012049735545018437,0.0011388273689617162
1780294753.652826786,1780294753.652218580,0.041172999888658524,-0.1820250004529953,9.777185440063477,0.0002168048006542426,0.011436444916196553,0.0007217111286965711
1780294753.657279015,1780294753.656889200,0.03888799995183945,-0.18943800032138824,9.791447639465332,0.0002232101549538207,0.009551209825640202,0.0019225848845403999
1780294753.662278414,1780294753.661822081,0.04042299836874008,-0.18692199885845184,9.783499717712402,0.001435009763234541,0.01081315286912654,0.0007030186116690177
1780294753.667901754,1780294753.667147160,0.04120999947190285,-0.18689900636672974,9.781902313232422,0.0014457609757620915,0.010790498314811004,0.001929094935010498
1780294753.673387289,1780294753.672385454,0.03716899827122688,-0.1916390061378479,9.777060508728027,0.00022804472534804855,0.011620733583000838,0.0019506149150825469
1780294753.677944660,1780294753.676662207,0.043584998697042465,-0.19167199730873108,9.77943229675293,-0.0003822445644883287,0.011414993985857833,0.0019529536334514962
1780294753.687359095,1780294753.683994055,0.046004001051187515,-0.19170600175857544,9.781815528869629,-0.0009949772688641753,0.010174501872710217,0.001941277336549372
1780294753.687390327,1780294753.686667919,0.04600699990987778,-0.18689900636672974,9.781885147094727,-0.0022131646276635896,0.010797793919780231,0.001959987343575292
1780294753.692359686,1780294753.691651106,0.043570999056100845,-0.18442800641059875,9.777142524719238,0.00022073179292690884,0.010804251045125161,0.0013263455086986028
1780294753.697110176,1780294753.696655750,0.04195399954915047,-0.19001400470733643,9.775472640991211,0.0014457609757620915,0.010790498314811004,0.001929094935010498
1780294753.704266787,1780294753.701852083,0.041152000427246094,-0.18439500033855438,9.774757385253906,0.001450124242715204,0.012653061165997712,0.001954332417486301
1780294753.707085848,1780294753.706671715,0.03875499963760376,-0.18199099600315094,9.774800300598145,0.00023977332969881928,0.012011984196276351,0.0031823110544791223
1780294753.713635683,1780294753.712171793,0.04365500062704086,-0.17735299468040466,9.786818504333496,0.00022610739919068408,0.010792924288116044,0.001939392447877817
1780294753.718325377,1780294753.716984510,0.04358899965882301,-0.18686500191688538,9.779501914978027,-0.0010013652144386133,0.012059735922969267,0.0007404210056853286
1780294753.722168207,1780294753.721689463,0.0403439998626709,-0.18678699433803558,9.773927688598633,-0.0009935112298932807,0.010795367946475194,0.0019496898307079732
1780294753.727026701,1780294753.726642847,0.036455001682043076,-0.18216000497341156,9.786772727966309,0.0002232101549538207,0.009551209825640202,0.0019225848845403999
1780294753.734432459,1780294753.731714010,0.034053999930620193,-0.1845639944076538,9.786746978759766,0.00023148302170910467,0.010781596490809627,0.002552439387057031
1780294753.737439156,1780294753.736660004,0.04603099822998047,-0.1821260005235672,9.784347534179688,0.0014486756287240949,0.012032212777286846,0.0019459199233277003
1780294753.745167732,1780294753.741703510,0.04121299833059311,-0.18209299445152283,9.781970977783203,0.001450124242715204,0.012653061165997712,0.001954332417486301
1780294753.747639179,1780294753.746631622,0.04357200115919113,-0.1820250004529953,9.777177810668945,0.0014577687373916247,0.012844907592690977,0.002774532457765733
1780294753.754918098,1780294753.752521515,0.04125300049781799,-0.18216000497341156,9.78675651550293,0.00022610739919068408,0.010792924288116044,0.001939392447877817
1780294753.756667137,1780294753.756129742,0.03724699839949608,-0.19337600469589233,9.786608695983887,-0.001007177160401416,0.009576306998017585,0.0007067710940695054
1780294753.762561083,1780294753.761935711,0.048360999673604965,-0.19404199719429016,9.77698802947998,0.00021245892617162486,0.009573864379955737,0.000696491071200553
1780294753.768656969,1780294753.768079758,0.04113199934363365,-0.18436099588871002,9.772364616394043,0.0002139075564173792,0.010194729413423411,0.0007048861403793688
1780294753.776119471,1780294753.771903515,0.04680899903178215,-0.1836940050125122,9.781929016113281,0.00021535617040848825,0.010815578842431579,0.0007132986345379699
1780294753.778622866,1780294753.776628971,0.03885199874639511,-0.1845639944076538,9.786730766296387,-0.001004279932419198,0.010818021460493427,0.0007235960823867077
1780294753.787465334,1780294753.787034988,0.045187998563051224,-0.17723999917507172,9.778836250305176,-0.00018854792028197992,0.010394936709521735,0.0011198207471679578
1780294753.788351059,1780294753.787993193,0.03881800174713135,-0.17728599905967712,9.782048225402832,0.0008251916468021167,0.010814374178157464,0.0007081498781043104
1780294753.792129755,1780294753.791403055,0.03399299830198288,-0.18686600029468536,9.779534339904785,0.0014486756287240949,0.012032212777286846,0.0019459199233277003
1780294753.798499584,1780294753.797927141,0.031592998653650284,-0.1892700046300888,9.779507637023926,-0.00038079595049721963,0.012035860059622809,0.0019613661276100974
1780294753.803106308,1780294753.801378250,0.038732998073101044,-0.18436099588871002,9.77237319946289,-0.0003915471630247702,0.012058514613938344,0.0007352723142702505
1780294753.811547995,1780294753.806823492,0.03882500156760216,-0.18532000482082367,9.783528327941895,-0.0005895896654590913,0.011216009039087734,0.0015431677830965666
1780294753.815481901,1780294753.811775684,0.03647099807858467,-0.18700100481510162,9.789097785949707,-0.0009993231758560835,0.00831193850137486,0.0019160574090905165
1780294753.817663193,1780294753.816783190,0.03889000043272972,-0.1870349943637848,9.791481971740723,0.0002232101549538207,0.009551209825640202,0.0019225848845403999
1780294753.825809002,1780294753.824347973,0.04126700013875961,-0.18940399587154388,9.789047241210938,0.00023294909318928968,0.011402462564574603,0.0025608517511784695
1780294753.832405806,1780294753.830549240,0.03649500012397766,-0.1822279989719391,9.791558265686035,0.00022610739919068408,0.010792924288116044,0.001939392447877817
1780294753.835266590,1780294753.834885120,0.042013999074697495,-0.18049000203609467,9.781991004943848,0.00022514746485653985,0.010379019120524996,0.0019337899267653446
1780294753.837237597,1780294753.836819410,0.043574001640081406,-0.17962099611759186,9.777212142944336,0.0014443123617709826,0.01016963224104603,0.001920699865831682
1780294753.842355728,1780294753.841891289,0.04364800080657005,-0.18696700036525726,9.786680221557617,-0.0010086257743925251,0.00895545860930672,0.0006983760248906896
1780294753.848219395,1780294753.847775221,0.04358899965882301,-0.18686500191688538,9.779501914978027,-0.0022268307532274686,0.009578732971322624,0.000717068541918243
1780294753.853647947,1780294753.853201151,0.050804998725652695,-0.18689900636672974,9.781869888305664,-0.0009910502765915089,0.009542325686692934,0.002545911781569985
1780294753.856983900,1780294753.856240034,0.046824000775814056,-0.18211500346660614,9.783547401428223,0.00022970278044413334,0.010785366528227062,0.0023480961289657795
1780294753.861708164,1780294753.861134768,0.04835300147533417,-0.17718400061130524,9.774836540222168,0.00022902210091662345,0.012034638750591886,0.001956217436195019
1780294753.867311954,1780294753.866410732,0.036410000175237656,-0.18930299580097198,9.78188419342041,0.00022902210091662345,0.012034638750591886,0.001956217436195019
1780294753.872456551,1780294753.871544600,0.03641200065612793,-0.18690000474452972,9.7819185256958,-0.0003865904389709464,0.009552431134671127,0.0019277161509756928
1780294753.878361464,1780294753.877589464,0.041145000606775284,-0.1940079927444458,9.774619102478027,0.0008344768203587728,0.010170853550076953,0.0019258312623041374
1780294753.884941816,1780294753.883993626,0.04676700010895729,-0.18683099746704102,9.777097702026367,0.002256920052276187,0.009961065115839949,0.0019110308225710982
1780294753.886811733,1780294753.886161327,0.04600200057029724,-0.1941089928150177,9.781782150268555,0.00021535617040848825,0.010815578842431579,0.0007132986345379699
1780294753.893850327,1780294753.893109322,0.05320199951529503,-0.19010299444198608,9.781815528869629,-0.001003302508086687,0.011231926628084473,0.0007291985384805987
1780294753.897131681,1780294753.896555662,0.041228998452425,-0.1869329959154129,9.784295082092285,0.00021827087213442762,0.012057293304907419,0.000730123557836591
1780294753.910312891,1780294753.909630775,0.0436519980430603,-0.18216000497341156,9.786748886108398,0.0002075196433522318,0.012079946818925652,-0.0004959527655048893
1780294753.911673546,1780294753.910776854,0.04834799841046333,-0.1843940019607544,9.774733543395996,-0.0010013652144386133,0.012059735922969267,0.0007404210056853286
1780294753.914001226,1780294753.913675547,0.046004001051187515,-0.19170600175857544,9.781815528869629,-0.0010018015541376408,0.009564980241008469,0.0013198180332487195
1780294753.919092417,1780294753.916651964,0.04041999951004982,-0.19172899425029755,9.783431053161621,0.0010363067201717337,0.00954958592155394,0.0019157082593089971
1780294753.924820423,1780294753.924357653,0.04362000152468681,-0.19894999265670776,9.784113883972168,0.00022465878519957504,0.010172075899405178,0.0019309799537192158
1780294753.926982403,1780294753.926554203,0.04125899821519852,-0.20142099261283875,9.788873672485352,0.00022073179292690884,0.010804251045125161,0.0013263455086986028
1780294753.941860676,1780294753.940142155,0.0435669980943203,-0.18923500180244446,9.777073860168457,-0.0022224674862743564,0.01144131350756344,0.0007423059593754652
1780294753.948117733,1780294753.942579985,0.050804998725652695,-0.18689900636672974,9.781869888305664,-0.0009906140019110628,0.012037082408951034,0.0019665148190251753
1780294753.948150158,1780294753.944499731,0.04838300123810768,-0.18204699456691742,9.778757095336914,0.0010463772531717744,0.010776203589603229,0.0027499231848223398
1780294753.948717117,1780294753.948081493,0.045965999364852905,-0.18923500180244446,9.77706527709961,0.001453614960307424,0.00952612929801963,0.0031383811199943465
1780294753.957690239,1780294753.957288027,0.04849100112915039,-0.17982399463653564,9.791552543640137,0.00021783454869004544,0.00956253658264932,0.0013095379453611858
1780294753.964142799,1780294753.963824749,0.0388140007853508,-0.18209299445152283,9.781978607177734,0.0008222769938401133,0.009572659715681622,0.0006913423797854748
1780294753.968384981,1780294753.966624737,0.03633299842476845,-0.18676400184631348,9.772345542907715,-0.00038906878474321297,0.010805473394453386,0.001331494200113681
1780294753.969464064,1780294753.969136238,0.041926998645067215,-0.19157099723815918,9.772258758544922,0.0002189515516619375,0.010808021082542597,0.001122002380644514
1780294753.975392103,1780294753.971674442,0.041182998567819595,-0.19647899270057678,9.77937126159668,0.0008291012140949975,0.01018218134738337,0.0013128017481047088
1780294753.977418423,1780294753.976908445,0.04361199960112572,-0.18209199607372284,9.781963348388672,0.0014457609757620915,0.010790498314811004,0.001929094935010498
1780294753.982944727,1780294753.981565952,0.04356899857521057,-0.186831995844841,9.777108192443848,0.00022610739919068408,0.010792924288116044,0.001939392447877817
1780294753.990136862,1780294753.989577293,0.041113998740911484,-0.1819230020046234,9.77000617980957,0.00022610739919068408,0.010792924288116044,0.001939392447877817
1780294753.992719889,1780294753.991608858,0.04037399962544441,-0.1820250004529953,9.777188301086426,0.0002232101549538207,0.009551209825640202,0.0019225848845403999
1780294753.997704506,1780294753.996848345,0.04844599962234497,-0.18696600198745728,9.786663055419922,0.00021827087213442762,0.012057293304907419,0.000730123557836591
1780294754.002698660,1780294754.001951694,0.04368799924850464,-0.1870339959859848,9.791465759277344,0.00021535617040848825,0.010815578842431579,0.0007132986345379699
1780294754.007182360,1780294754.006717205,0.055622998625040054,-0.18693199753761292,9.784246444702148,0.00022902210091662345,0.012034638750591886,0.001956217436195019
1780294754.016172647,1780294754.014039040,0.04832499846816063,-0.18916699290275574,9.772271156311035,0.0008495913648580171,0.012010762887245426,0.003177162363064044
1780294754.016925335,1780294754.016622066,0.048406001180410385,-0.18689900636672974,9.781877517700195,0.00022610739919068408,0.010792924288116044,0.001939392447877817
1780294754.024820328,1780294754.024487972,0.04596399888396263,-0.19163799285888672,9.777030944824219,-0.00038762017075210395,0.01142632178316425,0.0013399066942722821
1780294754.027112961,1780294754.026678562,0.04675300046801567,-0.18841099739074707,9.775479316711426,0.00022610739919068408,0.010792924288116044,0.001939392447877817
1780294754.032738686,1780294754.031818151,0.04351300001144409,-0.1819230020046234,9.769998550415039,0.00022610739919068408,0.010792924288116044,0.001939392447877817
1780294754.038245916,1780294754.037182093,0.04362700134515762,-0.18933600187301636,9.784252166748047,-0.001004279932419198,0.010818021460493427,0.0007235960823867077
1780294754.042579889,1780294754.041968584,0.043584998697042465,-0.19167199730873108,9.77943229675293,0.00021827087213442762,0.012057293304907419,0.000730123557836591
1780294754.047338724,1780294754.046958447,0.04122599959373474,-0.1917400062084198,9.784224510192871,-0.0009935112298932807,0.010795367946475194,0.0019496898307079732
1780294754.054017067,1780294754.051647663,0.04844199866056442,-0.19177299737930298,9.78659439086914,-0.0009935112298932807,0.010795367946475194,0.0019496898307079732
1780294754.056327343,1780294754.056001186,0.04601199924945831,-0.17968900501728058,9.781989097595215,0.00022610739919068408,0.010792924288116044,0.001939392447877817
1780294754.063466787,1780294754.061840773,0.04356899857521057,-0.186831995844841,9.777108192443848,0.0014428637477798736,0.009548783852335164,0.0019122875017102436
1780294754.078180552,1780294754.077663422,0.043529000133275986,-0.18676400184631348,9.772321701049805,0.0008291012140949975,0.01018218134738337,0.0013128017481047088
1780294754.079680920,1780294754.079315662,0.043554000556468964,-0.1795870065689087,9.774818420410156,0.00021535617040848825,0.010815578842431579,0.0007132986345379699
1780294754.080841064,1780294754.080171108,0.04364800080657005,-0.18696700036525726,9.7866792678833,0.0006082472675084929,0.009595715824755194,-0.0005330235647566287
1780294754.083362818,1780294754.082715750,0.04836300015449524,-0.19163799285888672,9.777023315429688,0.0014403853694983162,0.010801825071820122,0.0013160655508482318
1780294754.086340904,1780294754.086028576,0.04360499978065491,-0.19170600175857544,9.781825065612793,0.0026683116015146185,0.012029769118927697,0.0019356225404975438
1780294754.092393875,1780294754.091605663,0.04356500133872032,-0.19163799285888672,9.777039527893066,0.0008359429243482484,0.01079171962384193,0.0019342436264255761
1780294754.097313643,1780294754.096882343,0.041189998388290405,-0.18686600029468536,9.779509544372559,0.00021535617040848825,0.010815578842431579,0.0007132986345379699
1780294754.105038881,1780294754.104236126,0.04197299852967262,-0.1820250004529953,9.777182579040527,-0.00018041468093001314,0.01079374404238893,0.0019428307604935182
1780294754.107903004,1780294754.107376575,0.04349299892783165,-0.18188899755477905,9.767605781555176,0.00022902210091662345,0.012034638750591886,0.001956217436195019
1780294754.112461567,1780294754.111692905,0.04360099881887436,-0.1788650006055832,9.780414581298828,0.0002352180303658711,0.011605636788574285,0.002768004852278687
1780294754.117177725,1780294754.116745234,0.03881800174713135,-0.17728599905967712,9.782048225402832,0.0014403853694983162,0.010801825071820122,0.0013160655508482318
1780294754.122227192,1780294754.121812820,0.046073999255895615,-0.17738699913024902,9.789203643798828,0.00021245892617162486,0.009573864379955737,0.000696491071200553
1780294754.127016306,1780294754.126611948,0.03389199823141098,-0.1890999972820282,9.767534255981445,0.00022465878519957504,0.010172075899405178,0.0019309799537192158
1780294754.132799625,1780294754.131857157,0.04598899930715561,-0.18446199595928192,9.779528617858887,0.0002275734869255144,0.01141379036188102,0.001947804942036418
1780294754.137810707,1780294754.137252808,0.04683300107717514,-0.18694399297237396,9.785074234008789,-0.0009906140019110628,0.012037082408951034,0.0019665148190251753
1780294754.142176151,1780294754.141689777,0.043609000742435455,-0.18689900636672974,9.781893730163574,0.00022902210091662345,0.012034638750591886,0.001956217436195019
1780294754.147536993,1780294754.146879435,0.04115400090813637,-0.18199099600315094,9.774792671203613,0.00023685862797287992,0.010770269733800509,0.003165486326236245
1780294754.154489756,1780294754.153716564,0.04837299883365631,-0.1772170066833496,9.777230262756348,-0.0003729419659518872,0.010771491042831434,0.0031706350176513233
1780294754.157342911,1780294754.156629324,0.04353399947285652,-0.17955400049686432,9.772425651550293,-0.0009935112298932807,0.010795367946475194,0.0019496898307079732
1780294754.163343668,1780294754.162270069,0.03884100168943405,-0.18213799595832825,9.78516960144043,-0.00018041468093001314,0.01079374404238893,0.0019428307604935182
1780294754.167152166,1780294754.166636705,0.03885199874639511,-0.1845639944076538,9.786730766296387,0.00022610739919068408,0.010792924288116044,0.001939392447877817
1780294754.176475286,1780294754.176084757,0.04601199924945831,-0.17968900501728058,9.781989097595215,0.00022610739919068408,0.010792924288116044,0.001939392447877817
1780294754.178041220,1780294754.177481651,0.05324700102210045,-0.18215900659561157,9.786715507507324,0.00021535617040848825,0.010815578842431579,0.0007132986345379699
1780294754.181578636,1780294754.181250572,0.03869200125336647,-0.18669700622558594,9.767552375793457,0.00021535617040848825,0.010815578842431579,0.0007132986345379699
1780294754.187849760,1780294754.186958551,0.04037399962544441,-0.1820250004529953,9.777188301086426,0.00022610739919068408,0.010792924288116044,0.001939392447877817
1780294754.192069530,1780294754.191675186,0.041218001395463943,-0.17488199472427368,9.782074928283691,0.00022073179292690884,0.010804251045125161,0.0013263455086986028
1780294754.196991920,1780294754.196614742,0.04842900112271309,-0.1821260005235672,9.784339904785156,0.0002139075564173792,0.010194729413423411,0.0007048861403793688
1780294754.203535318,1780294754.201671600,0.041134998202323914,-0.17955400049686432,9.77243423461914,0.0014335610192062695,0.010192286795361563,0.0006946061175104165
1780294754.207201719,1780294754.206686258,0.03875799849629402,-0.17718400061130524,9.774869918823242,0.0020340765371022525,0.01083458507411385,-0.0005282064355968315
1780294754.213186741,1780294754.211597443,0.040435999631881714,-0.18694500625133514,9.78509521484375,0.00022088886156465664,0.0116358480624815,0.0011332074228694586
1780294754.217710495,1780294754.217035055,0.038731999695301056,-0.18676400184631348,9.772337913513184,0.0014482393540436488,0.009537456055028747,0.0025253344408894575
1780294754.223139763,1780294754.222554445,0.03558799996972084,-0.18365000188350677,9.778776168823242,0.0006443929823856586,0.01118335410682137,0.003167667829675639
1780294754.227195263,1780294754.226847887,0.03636299818754196,-0.17237800359725952,9.774946212768555,0.00023977332969881928,0.012011984196276351,0.0031823110544791223
1780294754.232045412,1780294754.231637001,0.03881800174713135,-0.17728599905967712,9.782048225402832,-0.0009935112298932807,0.010795367946475194,0.0019496898307079732
1780294754.237461090,1780294754.236603260,0.03877300024032593,-0.18442900478839874,9.777158737182617,0.00021245892617162486,0.009573864379955737,0.000696491071200553
1780294754.242109776,1780294754.241720438,0.04596799984574318,-0.18683099746704102,9.777099609375,0.0008222769938401133,0.009572659715681622,0.0006913423797854748
1780294754.247360945,1780294754.246700764,0.035627998411655426,-0.1837179958820343,9.783561706542969,-0.0005970422252835482,0.009567947168909827,0.0011120540175587146
1780294754.252002716,1780294754.251611710,0.03399299830198288,-0.18686600029468536,9.779534339904785,-0.0009935112298932807,0.010795367946475194,0.0019496898307079732
1780294754.257058859,1780294754.256603956,0.03408899903297424,-0.1918420046567917,9.791428565979004,0.0002275734869255144,0.01141379036188102,0.001947804942036418
1780294754.262329817,1780294754.261765718,0.03883399814367294,-0.1821260005235672,9.784371376037598,0.0002275734869255144,0.01141379036188102,0.001947804942036418
1780294754.267284155,1780294754.266653299,0.041248999536037445,-0.18696700036525726,9.786687850952148,0.00023148302170910467,0.010781596490809627,0.002552439387057031
1780294754.273064375,1780294754.271945715,0.04200899973511696,-0.18689900636672974,9.78189754486084,0.00023783601979610012,0.011184174901391557,0.003171088587274392
1780294754.277048588,1780294754.276620388,0.038770999759435654,-0.186831995844841,9.777124404907227,0.0014540512349878701,0.01202088497998043,0.0025589667324697517
1780294754.281885862,1780294754.281616449,0.04360999912023544,-0.18449600040912628,9.781928062438965,0.00022610739919068408,0.010792924288116044,0.001939392447877817
1780294754.289078951,1780294754.287500381,0.03883099928498268,-0.1869329959154129,9.784302711486816,-0.0009935112298932807,0.010795367946475194,0.0019496898307079732
1780294754.292054176,1780294754.291628361,0.04125300049781799,-0.18216000497341156,9.78675651550293,0.00022219786440709385,0.011425117118890136,0.001334758002857204
1780294754.297030449,1780294754.296622038,0.03559499979019165,-0.1932860016822815,9.780234336853027,0.0010284527356264012,0.010813954938345315,0.0007064394342863524
1780294754.304156065,1780294754.303722858,0.03882699832320213,-0.1917400062084198,9.784234046936035,0.00022073179292690884,0.010804251045125161,0.0013263455086986028
1780294754.307765722,1780294754.306639433,0.041228000074625015,-0.18933700025081635,9.784259796142578,0.00022902210091662345,0.012034638750591886,0.001956217436195019
1780294754.313883305,1780294754.311622620,0.043522000312805176,-0.19637799263000488,9.772183418273926,0.0002236464946528482,0.012045965507601002,0.0013431704970158051
1780294754.319972515,1780294754.319349051,0.04114900156855583,-0.1892009973526001,9.774688720703125,0.0002275734869255144,0.01141379036188102,0.001947804942036418
1780294754.324913740,1780294754.323537827,0.04354500025510788,-0.18358199298381805,9.77396297454834,-0.0009935112298932807,0.010795367946475194,0.0019496898307079732
1780294754.327923536,1780294754.326612234,0.04364800080657005,-0.18696700036525726,9.786680221557617,0.00022610739919068408,0.010792924288116044,0.001939392447877817
1780294754.332157612,1780294754.331612587,0.05157399922609329,-0.1932629942893982,9.778583526611328,0.0014457609757620915,0.010790498314811004,0.001929094935010498
1780294754.337747574,1780294754.336731434,0.043563999235630035,-0.19404199719429016,9.777005195617676,0.00022610739919068408,0.010792924288116044,0.001939392447877817
1780294754.342743635,1780294754.341978312,0.04836300015449524,-0.19163799285888672,9.777023315429688,0.00022610739919068408,0.010792924288116044,0.001939392447877817
1780294754.346620560,1780294754.346096277,0.03636400029063225,-0.19884899258613586,9.776959419250488,-0.001004279932419198,0.010818021460493427,0.0007235960823867077
1780294754.352241516,1780294754.351630926,0.03875099867582321,-0.18679800629615784,9.774730682373047,0.0002168048006542426,0.011436444916196553,0.0007217111286965711
1780294754.357583046,1780294754.356795311,0.03879399970173836,-0.19168399274349213,9.78024673461914,-0.001004279932419198,0.010818021460493427,0.0007235960823867077
1780294754.362224817,1780294754.361611128,0.0388059988617897,-0.19411000609397888,9.781805992126465,-0.0010028138284297224,0.011438870889501592,0.0007320085115267275
1780294754.367588282,1780294754.366671801,0.033906999975442886,-0.1963450014591217,9.76982307434082,-0.0010013652144386133,0.012059735922969267,0.0007404210056853286
1780294754.372626066,1780294754.371642113,0.038812000304460526,-0.18449600040912628,9.781944274902344,0.00021827087213442762,0.012057293304907419,0.000730123557836591
1780294754.377198935,1780294754.376617670,0.048500001430511475,-0.19427800178527832,9.793737411499023,0.00021535617040848825,0.010815578842431579,0.0007132986345379699
1780294754.382142067,1780294754.381613016,0.038860999047756195,-0.1901939958333969,9.78824520111084,0.00021827087213442762,0.012057293304907419,0.000730123557836591
1780294754.387254238,1780294754.386633873,0.03399299830198288,-0.18686600029468536,9.779534339904785,0.0008388401523304666,0.01203341640126366,0.0019510686147427784
1780294754.391967058,1780294754.391595602,0.038816001266241074,-0.17968900501728058,9.782013893127441,-0.0009906140019110628,0.012037082408951034,0.0019665148190251753
1780294754.396508932,1780294754.396009207,0.033976998180150986,-0.1820250004529953,9.777209281921387,-0.0022073527467193683,0.013281222844731913,0.001993619765192749
1780294754.401974440,1780294754.401665449,0.03395399823784828,-0.18679800629615784,9.774747848510742,-0.0009920626159021719,0.011416216335186058,0.0019581023248665744
1780294754.407035351,1780294754.406634092,0.03404900059103966,-0.19177399575710297,9.786642074584961,-0.00019408061143814833,0.009574684134228623,0.0006999119588364691
1780294754.412496328,1780294754.411623478,0.024437999352812767,-0.1869339942932129,9.784351348876953,-0.0010121164269661638,0.012082390477284802,-0.00048565531765615164
1780294754.417382002,1780294754.416867018,0.031550999730825424,-0.19160600006580353,9.774685859680176,-0.0009974382221659471,0.011427543092195175,0.0013450553856873603
1780294754.422382593,1780294754.421741486,0.0338979996740818,-0.18188999593257904,9.767637252807617,-0.0009949772688641753,0.010174501872710217,0.001941277336549372
1780294754.427474737,1780294754.426991463,0.033939000219106674,-0.17955400049686432,9.77245807647705,-0.0003973591089875729,0.009575085688986662,0.0007016398276342125
1780294754.432488441,1780294754.431612730,0.03239300101995468,-0.17884300649166107,9.77885627746582,-0.0005970422252835482,0.009567947168909827,0.0011120365925789293
1780294754.437314272,1780294754.436633110,0.03877599909901619,-0.17962199449539185,9.777228355407715,-0.0009935112298932807,0.010795367946475194,0.0019496898307079732
1780294754.443105698,1780294754.441544056,0.0403980016708374,-0.18527500331401825,9.780333518981934,-0.0009954485235413547,0.009967557611293098,0.0019384847884830285
1780294754.447879314,1780294754.447357416,0.04362799972295761,-0.1869329959154129,9.784285545349121,0.00020315632763518338,0.010217383967738946,-0.0005211727579823261
1780294754.451496601,1780294754.451165199,0.04848900064826012,-0.1822270005941391,9.791518211364746,0.0002070833199078496,0.009585191136964854,8.344418891259756e-05
1780294754.456928968,1780294754.456616879,0.04597099870443344,-0.1820250004529953,9.777169227600098,0.00021535617040848825,0.010815578842431579,0.0007132986345379699
1780294754.461893559,1780294754.461609125,0.034040000289678574,-0.17732000350952148,9.784457206726074,0.0014457609757620915,0.010790498314811004,0.001929094935010498
1780294754.467525244,1780294754.466623068,0.038791000843048096,-0.1772409975528717,9.778858184814453,0.00021991148599608175,0.011221926250133643,0.0011276049017569863
1780294754.472459793,1780294754.471601248,0.03879399970173836,-0.18205900490283966,9.779586791992188,0.00021245892617162486,0.009573864379955737,0.000696491071200553
1780294754.477220535,1780294754.476611137,0.03403099998831749,-0.18933700025081635,9.784284591674805,-0.00038906878474321297,0.010805473394453386,0.001331494200113681
1780294754.482303143,1780294754.481626987,0.04364499822258949,-0.19177399575710297,9.78661060333252,0.00021535617040848825,0.010815578842431579,0.0007132986345379699
1780294754.487318993,1780294754.486698151,0.043685998767614365,-0.18943800032138824,9.79142951965332,-0.0010028138284297224,0.011438870889501592,0.0007320085115267275
1780294754.493557453,1780294754.491594553,0.043529000133275986,-0.18676400184631348,9.772321701049805,-0.000999724600576959,0.011224369908492793,0.0011379022845871428
1780294754.496661186,1780294754.496179104,0.048312000930309296,-0.17951899766921997,9.77001667022705,-0.0009935112298932807,0.010795367946475194,0.0019496898307079732
1780294754.502167940,1780294754.501819134,0.0507889986038208,-0.18205800652503967,9.779546737670898,-0.0003944444235162789,0.010816800151462502,0.0007184473259530482
1780294754.509280920,1780294754.507019520,0.04841100051999092,-0.17968900501728058,9.781980514526367,-0.0009949772688641753,0.010174501872710217,0.001941277336549372
1780294754.512564659,1780294754.511620283,0.04838300123810768,-0.19167199730873108,9.77941608428955,0.0008388401523304666,0.01203341640126366,0.0019510686147427784
1780294754.516912937,1780294754.516606092,0.04992600157856941,-0.1867630034685135,9.772300720214844,0.0006326644105441785,0.010792121178599968,0.0019359715602419007
1780294754.522571564,1780294754.521857262,0.03872999921441078,-0.18916800618171692,9.772303581237793,0.00022610739919068408,0.010792924288116044,0.001939392447877817
1780294754.527035475,1780294754.526615381,0.03877300024032593,-0.18442900478839874,9.777158737182617,0.00021535617040848825,0.010815578842431579,0.0007132986345379699
1780294754.533096790,1780294754.532110691,0.0291920006275177,-0.19167299568653107,9.779480934143066,0.00022610739919068408,0.010792924288116044,0.001939392447877817
1780294754.536640882,1780294754.536233425,0.03878900036215782,-0.18926900625228882,9.779483795166016,-0.001004279932419198,0.010818021460493427,0.0007235960823867077
1780294754.542366266,1780294754.541757345,0.04042400047183037,-0.18532000482082367,9.783522605895996,0.000621913198016628,0.010814775732915501,0.0007098777469020539
1780294754.547036409,1780294754.546324730,0.04360999912023544,-0.18449600040912628,9.781928062438965,0.0014457609757620915,0.010790498314811004,0.001929094935010498
1780294754.552811384,1780294754.551637650,0.04194299876689911,-0.18678699433803558,9.773921966552734,0.0014486756287240949,0.012032212777286846,0.0019459199233277003
1780294754.557028532,1780294754.556643009,0.034033000469207764,-0.1869339942932129,9.784318923950195,0.00022610739919068408,0.010792924288116044,0.001939392447877817
1780294754.563402891,1780294754.562263966,0.041211001574993134,-0.18449600040912628,9.781936645507812,0.00021535617040848825,0.010815578842431579,0.0007132986345379699
1780294754.567215443,1780294754.566783428,0.04040199890732765,-0.1788650006055832,9.780426025390625,0.0010427993456620464,0.0107837436644381,0.002341236928714162
1780294754.572994232,1780294754.571612120,0.04121499881148338,-0.17968900501728058,9.782005310058594,0.00022073179292690884,0.010804251045125161,0.0013263455086986028
1780294754.577058315,1780294754.576618671,0.033998001366853714,-0.19008199870586395,9.780285835266113,-0.001004279932419198,0.010818021460493427,0.0007235960823867077
1780294754.582056284,1780294754.581604004,0.04362799972295761,-0.1869329959154129,9.784285545349121,-0.0003729419659518872,0.010771491042831434,0.0031706350176513233
1780294754.586992025,1780294754.586607456,0.03881099820137024,-0.18690000474452972,9.781909942626953,0.00023788837600868275,0.008896379085307386,0.0037533130778822786
1780294754.592294693,1780294754.591599226,0.04121600091457367,-0.17728599905967712,9.7820405960083,0.0014428637477798736,0.009548783852335164,0.0019122875017102436
1780294754.597055197,1780294754.596731901,0.04605399817228317,-0.17735299468040466,9.786809921264648,0.00021827087213442762,0.012057293304907419,0.000730123557836591
1780294754.602426291,1780294754.601986170,0.05644400045275688,-0.18376100063323975,9.78668212890625,0.0014450802312160004,0.012039752852121718,0.0015372162422397375
1780294754.610295057,1780294754.608564615,0.04836999997496605,-0.1820240020751953,9.777161598205566,0.002676165586059951,0.010765400102136322,0.003144891300501607
1780294754.613071203,1780294754.612678766,0.04354900121688843,-0.18679800629615784,9.774713516235352,0.0014428637477798736,0.009548783852335164,0.0019122875017102436
1780294754.616817713,1780294754.616283178,0.048406001180410385,-0.18689900636672974,9.781877517700195,0.00023439772343504403,0.012023310953285467,0.0025692643753742334
1780294754.622192860,1780294754.621617317,0.04126599803566933,-0.19180800020694733,9.789012908935547,-0.000987699283930478,0.013278779186372765,0.0019833223823625926
1780294754.627263784,1780294754.626765013,0.03884999826550484,-0.18696700036525726,9.786694526672363,0.0002218487958988009,0.012049735545018437,0.0011388273689617162
1780294754.632425547,1780294754.631603003,0.0388370007276535,-0.17732000350952148,9.784440994262695,0.0002275734869255144,0.01141379036188102,0.001947804942036418
1780294754.637693644,1780294754.636626482,0.04362500086426735,-0.1917400062084198,9.784217834472656,0.00022610739919068408,0.010792924288116044,0.001939392447877817
1780294754.642885685,1780294754.641705036,0.04120799899101257,-0.18930299580097198,9.781867027282715,0.0014443123617709826,0.01016963224104603,0.001920699865831682
1780294754.647599697,1780294754.646677017,0.04358899965882301,-0.18686500191688538,9.779501914978027,0.0014320949802353751,0.009571438406650697,0.0006861936233518154
1780294754.654669285,1780294754.653960705,0.045125000178813934,-0.19157099723815918,9.772248268127441,0.0014320949802353751,0.009571438406650697,0.0006861936233518154
1780294754.657340050,1780294754.656593323,0.03401000052690506,-0.19170700013637543,9.781856536865234,0.002041930521647585,0.009570216057322473,0.0006810449319367371
1780294754.663215399,1780294754.662443638,0.04364199936389923,-0.1949779987335205,9.786563873291016,0.0002095442244456855,0.008332167082385355,0.000679666147901932
1780294754.667039871,1780294754.666715860,0.04124600067734718,-0.19177399575710297,9.786619186401367,0.0002168048006542426,0.011436444916196553,0.0007217111286965711
1780294754.672026634,1780294754.671617746,0.04121600091457367,-0.17728599905967712,9.7820405960083,0.00022116811637129102,0.013299007767383261,0.0007469485461537932
1780294754.676993370,1780294754.676631689,0.03886599838733673,-0.18378500640392303,9.788337707519531,-0.0009987471762444482,0.01163827403578654,0.0011435048056996151
1780294754.681874990,1780294754.681633711,0.0436909981071949,-0.1822279989719391,9.791534423828125,-0.0009964259478738656,0.009553653483999352,0.001932864842390771
1780294754.687104702,1780294754.686614037,0.04361800104379654,-0.19172899425029755,9.78342056274414,-0.0005970422252835482,0.009567947168909827,0.0011120365925789293
1780294754.691983938,1780294754.691640615,0.04364600032567978,-0.18937000632286072,9.78664493560791,0.00022465878519957504,0.010172075899405178,0.0019309799537192158
1780294754.697020769,1780294754.696642399,0.0436679981648922,-0.18700100481510162,9.78907299041748,0.0008359429243482484,0.01079171962384193,0.0019342436264255761
1780294754.710547924,1780294754.701613188,0.0459510013461113,-0.18199099600315094,9.774775505065918,0.001435009763234541,0.01081315286912654,0.0007030186116690177
1780294754.710580111,1780294754.706629038,0.038791000843048096,-0.18686600029468536,9.779518127441406,-0.001004279932419198,0.010818021460493427,0.0007235960823867077
1780294754.714265823,1780294754.713851929,0.043609000742435455,-0.18689900636672974,9.781893730163574,-0.0001990198942575414,0.01208076761349584,-0.0004925144528891878
1780294754.716447830,1780294754.716095686,0.04358899965882301,-0.18686500191688538,9.779501914978027,0.002044827749629803,0.010811930519798315,0.0006978699202539394
1780294754.722792387,1780294754.722464323,0.0483429990708828,-0.19160400331020355,9.774629592895508,0.0014457609757620915,0.010790498314811004,0.001929094935010498
1780294754.726634979,1780294754.726127625,0.038812000304460526,-0.18449600040912628,9.781944274902344,0.0002232101549538207,0.009551209825640202,0.0019225848845403999
1780294754.731890917,1780294754.731597185,0.043609000742435455,-0.18689900636672974,9.781893730163574,-0.0010018015541376408,0.009564980241008469,0.0013198180332487195
1780294754.737027168,1780294754.736593723,0.040421999990940094,-0.18852399289608002,9.783476829528809,-0.0014020055511494945,0.009968360720809175,0.0019419056761189447
1780294754.741883039,1780294754.741591215,0.03399199992418289,-0.1892700046300888,9.779500007629395,-0.0009906140019110628,0.012037082408951034,0.0019665148190251753
1780294754.747686625,1780294754.747068167,0.03159099817276001,-0.19167299568653107,9.779473304748535,-0.0009935112298932807,0.010795367946475194,0.0019496898307079732
1780294754.753533125,1780294754.751054049,0.04358899965882301,-0.18686500191688538,9.779501914978027,0.00023439772343504403,0.012023310953285467,0.0025692643753742334
1780294754.756979465,1780294754.756575584,0.03634899854660034,-0.19160500168800354,9.774669647216797,0.00023832471570771024,0.011391118122511375,0.0031738986903576834
1780294754.762339354,1780294754.761934280,0.030813999474048615,-0.1885019987821579,9.781913757324219,0.0002232101549538207,0.009551209825640202,0.0019225848845403999
1780294754.766435862,1780294754.766089201,0.041234999895095825,-0.17972299456596375,9.784398078918457,0.0008373915383393575,0.011412568012552795,0.0019426561205841773
1780294754.772569656,1780294754.771961927,0.046011000871658325,-0.18209199607372284,9.781954765319824,-0.0009798627243649308,0.012014410169581389,0.0031926086973836035
1780294754.777394056,1780294754.776563644,0.045993998646736145,-0.17725099623203278,9.779631614685059,0.00022902210091662345,0.012034638750591886,0.001956217436195019
1780294754.784394503,1780294754.781707048,0.03881800174713135,-0.17728599905967712,9.782048225402832,-0.0009935112298932807,0.010795367946475194,0.0019496898307079732
1780294754.787738323,1780294754.786757946,0.035617999732494354,-0.1788879930973053,9.782035827636719,-0.00019116590971220897,0.010816398596704465,0.0007167368821350901
1780294754.791863918,1780294754.791593790,0.0388140007853508,-0.18209299445152283,9.781978607177734,0.00022610739919068408,0.010792924288116044,0.001939392447877817
1780294754.796860933,1780294754.796582699,0.0388530008494854,-0.18376299738883972,9.7867431640625,-0.0009980665617355196,0.010389019498475826,0.001535383628507538
1780294754.805200577,1780294754.803686380,0.033946000039577484,-0.1699409931898117,9.77259635925293,-0.0010096555386829732,0.010829349257799844,0.00011054915133481621
1780294754.807560444,1780294754.806912422,0.03148400038480759,-0.17464600503444672,9.76535701751709,-0.001004279932419198,0.010818021460493427,0.0007235960823867077
1780294754.815365076,1780294754.814954281,0.03878000006079674,-0.17481499910354614,9.777297019958496,0.0014428637477798736,0.009548783852335164,0.0019122875017102436
1780294754.819651842,1780294754.818414450,0.034015998244285583,-0.18209299445152283,9.781994819641113,0.0014428637477798736,0.009548783852335164,0.0019122875017102436
1780294754.835216284,1780294754.828060865,0.03553599864244461,-0.18195800483226776,9.772418022155762,-0.0009827600173657302,0.010772695707105548,0.0031757837090664012
1780294754.835245609,1780294754.828711271,0.04355200007557869,-0.18199099600315094,9.774784088134766,-0.0009906140019110628,0.012037082408951034,0.0019665148190251753
1780294754.835255861,1780294754.833034515,0.04365300014615059,-0.1797569990158081,9.786784172058105,-0.0016004319883063246,0.012038286032927848,0.0019716635104402537
1780294754.837405205,1780294754.836849451,0.04598800092935562,-0.18686500191688538,9.77949333190918,-0.0016072737635781566,0.0114287654415234,0.001350204207139601
1780294754.842379332,1780294754.841936827,0.03879399970173836,-0.18205900490283966,9.779586791992188,-0.0003915471630247702,0.012058514613938344,0.0007352723142702505
1780294754.853467226,1780294754.846132278,0.0435589998960495,-0.182001993060112,9.775582313537598,-0.0018154390739518746,0.011647454659464483,0.0007416776848244739
1780294754.853518248,1780294754.851609945,0.04112999886274338,-0.18676400184631348,9.772330284118652,-0.001614097983833041,0.010819226124767541,0.0007287447738017858
1780294754.857094526,1780294754.856611729,0.04361499845981598,-0.17728500068187714,9.782032012939453,0.00021535617040848825,0.010815578842431579,0.0007132986345379699
1780294754.864222527,1780294754.861670017,0.03636400029063225,-0.16997399926185608,9.774980545043945,0.00022610739919068408,0.010792924288116044,0.001939392447877817
1780294754.866985559,1780294754.866602659,0.04370100051164627,-0.16780699789524078,9.791742324829102,0.0008344768203587728,0.010170853550076953,0.0019258312623041374
1780294754.874371529,1780294754.871592283,0.04518900066614151,-0.17563800513744354,9.77885913848877,-0.0009935112298932807,0.010795367946475194,0.0019496898307079732
1780294754.877100468,1780294754.876544714,0.043574001640081406,-0.17962099611759186,9.777212142944336,-0.0009935112298932807,0.010795367946475194,0.0019496898307079732
1780294754.884832859,1780294754.881560564,0.0459510013461113,-0.18199099600315094,9.774775505065918,0.00022610739919068408,0.010792924288116044,0.001939392447877817
1780294754.886770487,1780294754.886185884,0.0459120012819767,-0.1819230020046234,9.769989967346191,0.0014486756287240949,0.012032212777286846,0.0019459199233277003
1780294754.893562317,1780294754.891169310,0.04598600044846535,-0.18926900625228882,9.779458999633789,0.0014486756287240949,0.012032212777286846,0.0019459199233277003
1780294754.897906780,1780294754.897396564,0.04040899872779846,-0.1885019987821579,9.781881332397461,0.0014379069912167591,0.012054867331602381,0.0007198261099878533
1780294754.902396441,1780294754.901818275,0.03623700141906738,-0.18178899586200714,9.76045036315918,0.00021535617040848825,0.010815578842431579,0.0007132986345379699
1780294754.916020155,1780294754.915532351,0.035496000200510025,-0.1834920048713684,9.767608642578125,0.0002270847910139043,0.01120682841540979,0.001944994968990289
1780294754.917451143,1780294754.916654348,0.03872799873352051,-0.19157099723815918,9.772269248962402,0.0008388401523304666,0.01203341640126366,0.0019510686147427784
1780294754.917901516,1780294754.917539358,0.036389999091625214,-0.18926900625228882,9.779491424560547,0.00021827087213442762,0.012057293304907419,0.000730123557836591
1780294754.923933744,1780294754.921608925,0.04112900048494339,-0.18916800618171692,9.772295951843262,-0.001004279932419198,0.010818021460493427,0.0007235960823867077
1780294754.928280354,1780294754.926608801,0.0339369997382164,-0.18195800483226776,9.77242374420166,-0.001004279932419198,0.010818021460493427,0.0007235960823867077
1780294754.933010340,1780294754.931653261,0.03885800018906593,-0.1757510006427765,9.786856651306152,-0.0009935112298932807,0.010795367946475194,0.0019496898307079732
1780294754.937424183,1780294754.936673403,0.04848499968647957,-0.1870339959859848,9.791448593139648,0.00023685862797287992,0.010770269733800509,0.003165486326236245
1780294754.942061186,1780294754.941556692,0.0459819994866848,-0.19407600164413452,9.779390335083008,0.00022610739919068408,0.010792924288116044,0.001939392447877817
1780294754.947458982,1780294754.946571112,0.04360700026154518,-0.18930299580097198,9.781859397888184,-0.0010032501681287499,0.008944131852297603,0.0013114229640699036
1780294754.952183247,1780294754.951581478,0.043609000742435455,-0.18689900636672974,9.781893730163574,-0.001007177160401416,0.009576306998017585,0.0007067710940695054
1780294754.958735943,1780294754.958103418,0.04359300062060356,-0.19008100032806396,9.780253410339355,0.00022514746485653985,0.010379019120524996,0.0019337899267653446
1780294754.963181257,1780294754.962573767,0.04360700026154518,-0.18930299580097198,9.781859397888184,0.00022610739919068408,0.010792924288116044,0.001939392447877817
1780294754.967099190,1780294754.966574192,0.03879399970173836,-0.18205900490283966,9.779586791992188,-0.000998886836157056,0.01080669470348431,0.001336642891528759
1780294754.972240686,1780294754.971579790,0.04590500146150589,-0.19153699278831482,9.769851684570312,-0.0009935112298932807,0.010795367946475194,0.0019496898307079732
1780294754.977041006,1780294754.976567030,0.034008000046014786,-0.19411000609397888,9.781822204589844,-0.0009935112298932807,0.010795367946475194,0.0019496898307079732
1780294754.982082129,1780294754.981546640,0.04527600109577179,-0.18380700051784515,9.789911270141602,-0.001003599252891688,0.009568750278425905,0.0011154747751574681
1780294754.988005400,1780294754.987148762,0.04843299835920334,-0.1773190051317215,9.784408569335938,0.000209980564144713,0.010826905599440695,0.0001002517116134012
1780294754.993043900,1780294754.992622614,0.04357200115919113,-0.1820250004529953,9.777177810668945,0.001435009763234541,0.01081315286912654,0.0007030186116690177
1780294754.996987581,1780294754.996578217,0.033913999795913696,-0.1867309957742691,9.7699613571167,0.00022610739919068408,0.010792924288116044,0.001939392447877817
1780294755.002417803,1780294755.001807690,0.03401000052690506,-0.19170700013637543,9.781856536865234,0.00022610739919068408,0.010792924288116044,0.001939392447877817
1780294755.014158249,1780294755.013532400,0.04365500062704086,-0.17735299468040466,9.78681755065918,0.0006346017041922524,0.011619930473484762,0.0019471766024668454
1780294755.015585184,1780294755.015080929,0.04358699917793274,-0.18926900625228882,9.77946662902832,0.00022902210091662345,0.012034638750591886,0.001956217436195019
1780294755.017259598,1780294755.016680479,0.03717299923300743,-0.18523000180721283,9.777153015136719,0.00022610739919068408,0.010792924288116044,0.001939392447877817
1780294755.022407055,1780294755.021580696,0.04836999997496605,-0.1820240020751953,9.777161598205566,0.0002168048006542426,0.011436444916196553,0.0007217111286965711
1780294755.027304888,1780294755.026673079,0.03885199874639511,-0.1845639944076538,9.786730766296387,0.0008388401523304666,0.01203341640126366,0.0019510686147427784
1780294755.032613516,1780294755.032063246,0.03401000052690506,-0.19170700013637543,9.781856536865234,-0.0009935112298932807,0.010795367946475194,0.0019496898307079732
1780294755.039348841,1780294755.038153648,0.036389999091625214,-0.18926900625228882,9.779491424560547,0.0002168048006542426,0.011436444916196553,0.0007217111286965711
1780294755.045566559,1780294755.042127848,0.04359599947929382,-0.18527400493621826,9.780323028564453,0.00021467549088097836,0.012064850024499101,0.00032141984423933754
1780294755.055130243,1780294755.053586721,0.046011000871658325,-0.18209199607372284,9.781954765319824,0.00021535617040848825,0.010815578842431579,0.0007132986345379699
1780294755.055961370,1780294755.055456638,0.046011000871658325,-0.18209199607372284,9.781954765319824,0.0002236464946528482,0.012045965507601002,0.0013431704970158051
1780294755.058243036,1780294755.057914734,0.043589998036623,-0.18446199595928192,9.779536247253418,0.00022610739919068408,0.010792924288116044,0.001939392447877817
1780294755.062924147,1780294755.062580585,0.04121299833059311,-0.18209299445152283,9.781970977783203,0.0014428637477798736,0.009548783852335164,0.0019122875017102436
1780294755.066805363,1780294755.066085100,0.03889000043272972,-0.1870349943637848,9.791481971740723,0.0010392039481539517,0.010791301424327082,0.0019325332476261992
1780294755.072981596,1780294755.071271896,0.034033000469207764,-0.1869339942932129,9.784318923950195,0.00022610739919068408,0.010792924288116044,0.001939392447877817
1780294755.077682018,1780294755.077181101,0.04114900156855583,-0.1892009973526001,9.774688720703125,0.0014428637477798736,0.009548783852335164,0.0019122875017102436
1780294755.082628012,1780294755.081588745,0.04353100061416626,-0.18436099588871002,9.772356033325195,0.0014389367555072074,0.010180958998055146,0.0013076530566896306
1780294755.090099812,1780294755.086729765,0.034035999327898026,-0.1821269989013672,9.784387588500977,0.00021535617040848825,0.010815578842431579,0.0007132986345379699
1780294755.092214108,1780294755.091582537,0.035590000450611115,-0.18044599890708923,9.778822898864746,0.0014415023887248536,0.0120473095717134,0.0011285298560943973
1780294755.101241827,1780294755.097413778,0.04121299833059311,-0.18209299445152283,9.781970977783203,0.00022902210091662345,0.012034638750591886,0.001956217436195019
1780294755.102386951,1780294755.101729631,0.03883900120854378,-0.17491599917411804,9.784475326538086,-0.0009906140019110628,0.012037082408951034,0.0019665148190251753
1780294755.109150410,1780294755.106583118,0.034015998244285583,-0.18209299445152283,9.781994819641113,0.00021535617040848825,0.010815578842431579,0.0007132986345379699
1780294755.117199183,1780294755.112614155,0.043570999056100845,-0.18442800641059875,9.777142524719238,0.0008330282063676638,0.009550005161366087,0.0019174361931253217
1780294755.118087292,1780294755.117674351,0.04362199828028679,-0.18692199885845184,9.783489227294922,0.0026517485080428467,0.00956899474829155,0.0006758961755030776
1780294755.126255989,1780294755.121583223,0.043591998517513275,-0.18205900490283966,9.779570579528809,0.0014335610192062695,0.010192286795361563,0.0006946061175104165
1780294755.127564907,1780294755.127040625,0.03723499923944473,-0.19175200164318085,9.78503704071045,0.0002179741760933626,0.01039413360000566,0.0011163998595320418
1780294755.132890463,1780294755.132443905,0.03880399838089943,-0.19651299715042114,9.781771659851074,-0.0003836931784794377,0.010794145597146969,0.001944541139292895
1780294755.141470432,1780294755.140791893,0.04604699835181236,-0.18696700036525726,9.78667163848877,-0.0010013652144386133,0.012059735922969267,0.0007404210056853286
1780294755.145077705,1780294755.144629955,0.0435510016977787,-0.1843940019607544,9.774748802185059,0.00021535617040848825,0.010815578842431579,0.0007132986345379699
1780294755.147564650,1780294755.146807194,0.043533001095056534,-0.18195700645446777,9.772391319274902,0.0008266402607932257,0.011435222566868328,0.0007165623722629116
1780294755.154746771,1780294755.154367447,0.03872999921441078,-0.18836699426174164,9.772315979003906,0.0014395649650396174,0.011219500276828605,0.0011173073888896673
1780294755.157094717,1780294755.156598330,0.04354900121688843,-0.18679800629615784,9.774713516235352,0.0014443123617709826,0.01016963224104603,0.001920699865831682
1780294755.166664124,1780294755.165514708,0.04360499978065491,-0.19170600175857544,9.781825065612793,0.0008276526001038886,0.009561332958672505,0.0013043892539461076
1780294755.167464018,1780294755.167021751,0.04845099896192551,-0.17975600063800812,9.78676700592041,0.00022073179292690884,0.010804251045125161,0.0013263455086986028
1780294755.175035954,1780294755.172534943,0.043574001640081406,-0.17962099611759186,9.777212142944336,0.00022610739919068408,0.010792924288116044,0.001939392447877817
1780294755.177022457,1780294755.176577806,0.04836300015449524,-0.19163799285888672,9.777023315429688,0.00022514746485653985,0.010379019120524996,0.0019337899267653446
1780294755.187181473,1780294755.186254025,0.04844199866056442,-0.19177299737930298,9.78659439086914,0.0008344768203587728,0.010170853550076953,0.0019258312623041374
1780294755.189381599,1780294755.188045740,0.04608700051903725,-0.1870339959859848,9.791457176208496,0.00021535617040848825,0.010815578842431579,0.0007132986345379699
1780294755.193889856,1780294755.192977190,0.048406001180410385,-0.18689900636672974,9.781877517700195,-0.000998886836157056,0.01080669470348431,0.001336642891528759
1780294755.197626591,1780294755.196891308,0.033994998782873154,-0.1844629943370819,9.779568672180176,-0.0009964259478738656,0.009553653483999352,0.001932864842390771
1780294755.202065229,1780294755.201731205,0.038784001022577286,-0.18685400485992432,9.778719902038574,-0.001007177160401416,0.009576306998017585,0.0007067710940695054
1780294755.211670160,1780294755.207473516,0.04358699917793274,-0.18926900625228882,9.77946662902832,0.00021783454869004544,0.00956253658264932,0.0013095379453611858
1780294755.212567806,1780294755.211567163,0.043609000742435455,-0.18689900636672974,9.781893730163574,0.00022073179292690884,0.010804251045125161,0.0013263455086986028
1780294755.217957735,1780294755.217337608,0.048385001718997955,-0.18926799297332764,9.779450416564941,-0.0009906140019110628,0.012037082408951034,0.0019665148190251753
1780294755.222073555,1780294755.221595764,0.03879399970173836,-0.18205900490283966,9.779586791992188,0.00022610739919068408,0.010792924288116044,0.001939392447877817
1780294755.230435371,1780294755.229790449,0.0436519980430603,-0.18216000497341156,9.786749839782715,0.0014395649650396174,0.011219500276828605,0.0011173073888896673
1780294755.233131170,1780294755.231576204,0.03639499843120575,-0.18205900490283966,9.779594421386719,0.00022073179292690884,0.010804251045125161,0.0013263455086986028
1780294755.237371445,1780294755.236550808,0.03885199874639511,-0.1853650063276291,9.786718368530273,-0.0010169684385948222,0.010012866719924168,-0.0005136853156890079
1780294755.243714333,1780294755.241542339,0.04363499954342842,-0.1773190051317215,9.784424781799316,0.0014320949802353751,0.009571438406650697,0.0006861936233518154
1780294755.248730898,1780294755.248203278,0.04597099870443344,-0.1820250004529953,9.777169227600098,0.0002232101549538207,0.009551209825640202,0.0019225848845403999
1780294755.253593922,1780294755.251562834,0.045972999185323715,-0.17962099611759186,9.777203559875488,0.00021928316268115448,0.010183402656414296,0.0013179330145400017
1780294755.256882429,1780294755.256413698,0.041189998388290405,-0.18686600029468536,9.779509544372559,0.00021535617040848825,0.010815578842431579,0.0007132986345379699
1780294755.262238741,1780294755.261722326,0.04196999967098236,-0.186831995844841,9.77711296081543,-0.001004279932419198,0.010818021460493427,0.0007235960823867077
1780294755.268908024,1780294755.266616583,0.03151699900627136,-0.18432800471782684,9.770004272460938,-0.0009935112298932807,0.010795367946475194,0.0019496898307079732
1780294755.273124456,1780294755.271573544,0.041172999888658524,-0.1820250004529953,9.777185440063477,-0.0009935112298932807,0.010795367946475194,0.0019496898307079732
1780294755.276509285,1780294755.276016474,0.036414001137018204,-0.18449600040912628,9.781952857971191,-0.000379329846507744,0.012656708448333675,0.0019697786217686983
1780294755.282040596,1780294755.281536102,0.04116800054907799,-0.18923500180244446,9.777080535888672,0.000244136661670513,0.013874547047463057,0.003207531242012303
1780294755.291502714,1780294755.290598154,0.043533001095056534,-0.18195700645446777,9.772391319274902,0.00024073326403296352,0.012425889363867399,0.0031879135755915945
1780294755.292061806,1780294755.291570425,0.04361499845981598,-0.17728500068187714,9.782032012939453,0.0014482393540436488,0.009537456055028747,0.0025253344408894575
1780294755.296927452,1780294755.296568871,0.04367100074887276,-0.18219399452209473,9.789142608642578,0.00022610739919068408,0.010792924288116044,0.001939392447877817
1780294755.302955627,1780294755.302457571,0.03643700107932091,-0.17972299456596375,9.784414291381836,-0.0009999166004475042,0.012680585351977434,0.0007488334998439298
1780294755.341688871,1780294755.341135979,0.04367300122976303,-0.17979000508785248,9.789176940917969,0.00022902210091662345,0.012034638750591886,0.001956217436195019
1780294755.342902899,1780294755.342496872,0.038791000843048096,-0.1772409975528717,9.778858184814453,0.0002232101549538207,0.009551209825640202,0.0019225848845403999
1780294755.343831778,1780294755.343534946,0.0484439991414547,-0.18937000632286072,9.786628723144531,0.0002139075564173792,0.010194729413423411,0.0007048861403793688
1780294755.345212936,1780294755.344685078,0.0412059985101223,-0.19170600175857544,9.781832695007324,0.00021928316268115448,0.010183402656414296,0.0013179330145400017
1780294755.346936464,1780294755.345666409,0.029272999614477158,-0.18940499424934387,9.789087295532227,-0.001614097983833041,0.010819226124767541,0.0007287447738017858
1780294755.346960783,1780294755.346561909,0.034053999930620193,-0.1845639944076538,9.786746978759766,-0.0022185403639645275,0.010809120676789349,0.001346940404396078
1780294755.348335981,1780294755.347935200,0.04364800080657005,-0.18696700036525726,9.7866792678833,-0.0009906140019110628,0.012037082408951034,0.0019665148190251753
1780294755.349523544,1780294755.348502636,0.04606299847364426,-0.19180700182914734,9.788995742797852,0.0014379069912167591,0.012054867331602381,0.0007198261099878533
1780294755.352196932,1780294755.351756573,0.045191001147031784,-0.19168299436569214,9.78022575378418,0.001434032273883449,0.010399247701535492,0.0006973986655767599
1780294755.354045868,1780294755.353753805,0.03880700096487999,-0.19170600175857544,9.781841278076172,0.001453614960307424,0.00952612929801963,0.0031383811199943465
1780294755.358719587,1780294755.358229160,0.038809001445770264,-0.18930299580097198,9.781875610351562,0.0008373915383393575,0.011412568012552795,0.0019426561205841773
1780294755.362182856,1780294755.361569405,0.03883399814367294,-0.1821260005235672,9.784371376037598,0.0002236464946528482,0.012045965507601002,0.0013431704970158051
1780294755.367031813,1780294755.366604328,0.03647099807858467,-0.18700100481510162,9.789097785949707,0.0008388401523304666,0.01203341640126366,0.0019510686147427784
1780294755.372196436,1780294755.371582270,0.04524499922990799,-0.1901710033416748,9.786628723144531,0.0014385876057256878,0.010805595109237558,0.001111704867777195
1780294755.377067804,1780294755.376566887,0.03884999826550484,-0.18696700036525726,9.786696434020996,0.00022902210091662345,0.012034638750591886,0.001956217436195019
1780294755.382964373,1780294755.382498503,0.03395700082182884,-0.18199199438095093,9.774816513061523,-0.0009984679864563951,0.01330145038544511,0.0007572459940025309
1780294755.387061357,1780294755.386603832,0.04118499904870987,-0.19407600164413452,9.77940559387207,0.00023191934515348685,0.013276353213067726,0.001973042294475059
1780294755.395043612,1780294755.391906977,0.04596799984574318,-0.18683099746704102,9.777099609375,0.000848142750866908,0.01138991345823726,0.0031687499989426055
1780294755.396926403,1780294755.396577835,0.03715499863028526,-0.1916159987449646,9.775465965270996,-0.001002342573752543,0.01164583179567552,0.0007348185495914376
1780294755.408812046,1780294755.408437490,0.03880700096487999,-0.19170600175857544,9.781841278076172,0.00022219786440709385,0.011425117118890136,0.001334758002857204
1780294755.409410000,1780294755.409068108,0.04121299833059311,-0.18209299445152283,9.781970977783203,0.00022465878519957504,0.010172075899405178,0.0019309799537192158
1780294755.412331581,1780294755.411561966,0.03399699926376343,-0.18205900490283966,9.779603004455566,0.00021535617040848825,0.010815578842431579,0.0007132986345379699
1780294755.417021036,1780294755.416657209,0.04120999947190285,-0.18689900636672974,9.781902313232422,0.0014320949802353751,0.009571438406650697,0.0006861936233518154
1780294755.422110319,1780294755.421619177,0.038895998150110245,-0.17902299761772156,9.791597366333008,0.0010245780833116724,0.009158352993332538,0.0006840119898752591
1780294755.426975250,1780294755.426076174,0.041172999888658524,-0.1820250004529953,9.777185440063477,0.00021535617040848825,0.010815578842431579,0.0007132986345379699
1780294755.434810400,1780294755.434025049,0.04361400008201599,-0.17968900501728058,9.781997680664062,0.00022610739919068408,0.010792924288116044,0.001939392447877817
1780294755.437721491,1780294755.436547041,0.03882899880409241,-0.18933700025081635,9.784268379211426,0.0008330282063676638,0.009550005161366087,0.0019174361931253217
1780294755.442402840,1780294755.441654682,0.043609000742435455,-0.18689900636672974,9.781893730163574,0.0008222769938401133,0.009572659715681622,0.0006913423797854748
1780294755.450679779,1780294755.446753263,0.04196000099182129,-0.182001993060112,9.77558708190918,0.0014320949802353751,0.009571438406650697,0.0006861936233518154
1780294755.452756405,1780294755.452115536,0.04113699868321419,-0.17714999616146088,9.772468566894531,0.0014428637477798736,0.009548783852335164,0.0019122875017102436
1780294755.457126141,1780294755.456547260,0.04359399899840355,-0.1884790062904358,9.78027629852295,0.0006362423180539065,0.010784564459008286,0.0023446579463872407
1780294755.463155985,1780294755.462418556,0.04358699917793274,-0.18926900625228882,9.77946662902832,0.00021535617040848825,0.010815578842431579,0.0007132986345379699
1780294755.466655970,1780294755.466262817,0.043584998697042465,-0.19167199730873108,9.77943229675293,0.00021535617040848825,0.010815578842431579,0.0007132986345379699
1780294755.474333525,1780294755.473755598,0.04359300062060356,-0.19008100032806396,9.780253410339355,-0.000989636577578552,0.01245098653624478,0.001972117340137648
1780294755.476930618,1780294755.476558208,0.04361199960112572,-0.18209199607372284,9.781963348388672,0.0002275734869255144,0.01141379036188102,0.001947804942036418
1780294755.482104063,1780294755.481571913,0.03557499870657921,-0.18362799286842346,9.777180671691895,0.0014385876057256878,0.010805595109237558,0.001111704867777195
1780294755.487752199,1780294755.487272739,0.034014999866485596,-0.18449600040912628,9.781959533691406,0.0014296341569707658,0.010824479626135657,8.99717212537395e-05
1780294755.491882324,1780294755.491563797,0.04603699967265129,-0.1725119948387146,9.784485816955566,0.0014379069912167591,0.012054867331602381,0.0007198261099878533
1780294755.496959448,1780294755.496561289,0.04605399817228317,-0.17735299468040466,9.786809921264648,-0.001004279932419198,0.010818021460493427,0.0007235960823867077
1780294755.502588511,1780294755.502161503,0.04121299833059311,-0.18209299445152283,9.781970977783203,-0.0003944444235162789,0.010816800151462502,0.0007184473259530482
1780294755.507744074,1780294755.506102324,0.043584998697042465,-0.18204699456691742,9.778773307800293,0.001435009763234541,0.01081315286912654,0.0007030186116690177
1780294755.515221357,1780294755.514873505,0.05324700102210045,-0.18215900659561157,9.786715507507324,0.0008359429243482484,0.01079171962384193,0.0019342436264255761
1780294755.516554832,1780294755.516116381,0.04118800163269043,-0.18926900625228882,9.779475212097168,0.00023148302170910467,0.010781596490809627,0.002552439387057031
1780294755.522077084,1780294755.521526337,0.03637700155377388,-0.17962199449539185,9.777235984802246,0.00021928316268115448,0.010183402656414296,0.0013179330145400017
1780294755.528578997,1780294755.527183771,0.03399999812245369,-0.17725199460983276,9.779672622680664,0.0008276526001038886,0.009561332958672505,0.0013043892539461076
1780294755.533101082,1780294755.531553030,0.04357299953699112,-0.18042199313640594,9.777200698852539,0.0018523178733330689,0.010789677520240818,0.0019256741774117444
1780294755.536908150,1780294755.536541224,0.04127800092101097,-0.17498399317264557,9.789254188537598,0.0014496879680347579,0.010158304443739613,0.002533729380031111
1780294755.542384863,1780294755.541845798,0.043554000556468964,-0.1795870065689087,9.774818420410156,0.001435009763234541,0.01081315286912654,0.0007030186116690177
1780294755.547201872,1780294755.546706915,0.04362799972295761,-0.1869329959154129,9.784285545349121,0.00022902210091662345,0.012034638750591886,0.001956217436195019
1780294755.551787138,1780294755.551001787,0.04836700111627579,-0.18683099746704102,9.777091979980469,0.0002275734869255144,0.01141379036188102,0.001947804942036418
1780294755.557213068,1780294755.556554556,0.05151499807834625,-0.2011840045452118,9.772088050842285,-0.0005869716922835076,0.010794547151905006,0.0019462515180922717
1780294755.564383507,1780294755.563916683,0.04350300133228302,-0.19634400308132172,9.769790649414062,-0.0009935112298932807,0.010795367946475194,0.0019496898307079732
1780294755.569803238,1780294755.569128036,0.043526001274585724,-0.19157099723815918,9.772253036499023,-0.00018952529585055481,0.00998103154193069,0.0011142182260554855
1780294755.578404427,1780294755.577847958,0.043584998697042465,-0.19167199730873108,9.77943229675293,-0.0009974382221659471,0.011427543092195175,0.0013450553856873603
1780294755.579945087,1780294755.579325914,0.03876800090074539,-0.1916390061378479,9.777055740356445,-0.0009906140019110628,0.012037082408951034,0.0019665148190251753
1780294755.581946373,1780294755.581141233,0.04676799848675728,-0.18522900342941284,9.777120590209961,0.00022804472534804855,0.011620733583000838,0.0019506149150825469
1780294755.588511705,1780294755.587982655,0.036354001611471176,-0.18439500033855438,9.774773597717285,0.0002139075564173792,0.010194729413423411,0.0007048861403793688
1780294755.596381664,1780294755.593923569,0.034026000648736954,-0.18692199885845184,9.78352165222168,0.000625491105526356,0.01080721797302652,0.0011185640680288127
1780294755.598893642,1780294755.598274708,0.0412059985101223,-0.19170600175857544,9.781832695007324,0.0014594268412516454,0.012009540537917201,0.0031720136716489656
1780294755.614666700,1780294755.613954067,0.0435669980943203,-0.18923500180244446,9.777073860168457,0.0008466941368757989,0.010769048424769586,0.0031603373747468417
1780294755.616007566,1780294755.615376234,0.0435669980943203,-0.18923500180244446,9.777073860168457,0.00022610739919068408,0.010792924288116044,0.001939392447877817
1780294755.617153645,1780294755.616745710,0.048423998057842255,-0.18933600187301636,9.784235954284668,0.00021535617040848825,0.010815578842431579,0.0007132986345379699
1780294755.620119333,1780294755.619412899,0.03715600073337555,-0.19001400470733643,9.775487899780273,0.0002081828653906657,0.01083069332191224,-0.00010407398333357954
1780294755.622173071,1780294755.621593952,0.04594799876213074,-0.18679800629615784,9.774706840515137,0.0008413185306120237,0.010780375181778701,0.0025472906956419527
1780294755.627337694,1780294755.626757383,0.03886500000953674,-0.19421100616455078,9.788985252380371,-0.0009827600173657302,0.010772713392159659,0.0031757837090664012
1780294755.634338140,1780294755.633915663,0.02681499905884266,-0.18930399417877197,9.781915664672852,0.00021535617040848825,0.010815578842431579,0.0007132986345379699
1780294755.637278080,1780294755.636767864,0.024469999596476555,-0.19661599397659302,9.788999557495117,0.0014457609757620915,0.010790498314811004,0.001929094935010498
1780294755.645264864,1780294755.644814014,0.04364100098609924,-0.19658100605010986,9.786540985107422,0.001456512188289642,0.010767826075441361,0.0031551886833317633
1780294755.647084713,1780294755.646522045,0.04840400069952011,-0.189301997423172,9.781843185424805,0.0002232101549538207,0.009551209825640202,0.0019225848845403999
1780294755.652001381,1780294755.651629925,0.05078500136733055,-0.18686500191688538,9.7794771194458,-0.0009949772688641753,0.010174501872710217,0.001941277336549372
1780294755.657085180,1780294755.656747103,0.04112999886274338,-0.18676400184631348,9.772330284118652,0.0002232101549538207,0.009551209825640202,0.0019225848845403999
1780294755.666642189,1780294755.665857315,0.04122599959373474,-0.1917400062084198,9.784224510192871,0.0002232101549538207,0.009551209825640202,0.0019225848845403999
1780294755.667537451,1780294755.666665077,0.0532039999961853,-0.18689900636672974,9.781861305236816,-0.001003302508086687,0.011231926628084473,0.0007291985384805987
1780294755.673264027,1780294755.671531439,0.046025000512599945,-0.18933600187301636,9.7842435836792,0.0002075196433522318,0.012079946818925652,-0.0004959527655048893
1780294755.677094221,1780294755.676545382,0.04196000099182129,-0.182001993060112,9.77558708190918,-0.00018662805161369145,0.01122274600440653,0.0011310432143726878
1780294755.682131052,1780294755.681726217,0.04361499845981598,-0.17728500068187714,9.782032012939453,0.00021535617040848825,0.010815578842431579,0.0007132986345379699
1780294755.687545300,1780294755.686781645,0.045972999185323715,-0.17962099611759186,9.777203559875488,-0.000998886836157056,0.01080669470348431,0.001336642891528759
1780294755.694068909,1780294755.691601992,0.043522000312805176,-0.17872999608516693,9.770842552185059,-0.0009935112298932807,0.010795367946475194,0.0019496898307079732
1780294755.697419643,1780294755.696573019,0.03875799849629402,-0.17718400061130524,9.774869918823242,0.00022610739919068408,0.010792924288116044,0.001939392447877817
1780294755.702424288,1780294755.701604366,0.03551999852061272,-0.18674199283123016,9.770753860473633,-0.001004279932419198,0.010818021460493427,0.0007235960823867077
1780294755.713177681,1780294755.712743759,0.03637100011110306,-0.18923600018024445,9.777098655700684,0.001435009763234541,0.01081315286912654,0.0007030186116690177
1780294755.714392900,1780294755.713730097,0.0340300016105175,-0.1917410045862198,9.784249305725098,0.0008330282063676638,0.009550005161366087,0.0019174361931253217
1780294755.717485666,1780294755.716606617,0.03397199884057045,-0.18923600018024445,9.777106285095215,0.00021783454869004544,0.00956253658264932,0.0013095379453611858
1780294755.726743698,1780294755.725598097,0.03631800040602684,-0.17951999604701996,9.77005672454834,0.00020460494162629242,0.010838250041503922,-0.0005127777213128009
1780294755.728538990,1780294755.727232933,0.04351000115275383,-0.17710499465465546,9.769268989562988,0.00021371557280147943,0.011650945897205355,0.0003158173231268652
1780294755.733772516,1780294755.732125282,0.04601899906992912,-0.17007499933242798,9.782127380371094,0.00022610739919068408,0.010792924288116044,0.001939392447877817
1780294755.737786055,1780294755.737143040,0.043556999415159225,-0.17478099465370178,9.774888038635254,0.00023977332969881928,0.012011984196276351,0.0031823110544791223
1780294755.742037058,1780294755.741532803,0.04600699990987778,-0.18689900636672974,9.781885147094727,0.00023832471570771024,0.011391118122511375,0.0031738986903576834
1780294755.749536991,1780294755.746576786,0.0363290011882782,-0.19157099723815918,9.772276878356934,-0.001004279932419198,0.010818021460493427,0.0007235960823867077
1780294755.752045393,1780294755.751556158,0.04034699872136116,-0.18197999894618988,9.773996353149414,0.000621913198016628,0.010814775732915501,0.0007098777469020539
1780294755.757603884,1780294755.757080793,0.04359399899840355,-0.17965500056743622,9.779605865478516,-0.001004279932419198,0.010818021460493427,0.0007235960823867077
1780294755.762322426,1780294755.761607885,0.03411899879574776,-0.17745499312877655,9.794028282165527,-0.001004279932419198,0.010818021460493427,0.0007235960823867077
1780294755.766621351,1780294755.766229391,0.03641499951481819,-0.18209299445152283,9.781987190246582,0.00022610739919068408,0.010792924288116044,0.001939392447877817
1780294755.772051096,1780294755.771554232,0.03405600041151047,-0.18216100335121155,9.786781311035156,0.00022219786440709385,0.011425117118890136,0.001334758002857204
1780294755.777065754,1780294755.776561499,0.03414899855852127,-0.18231800198554993,9.797947883605957,0.00022902210091662345,0.012034638750591886,0.001956217436195019
1780294755.785871983,1780294755.781558514,0.04364600032567978,-0.18937000632286072,9.78664493560791,0.00022610739919068408,0.010792924288116044,0.001939392447877817
1780294755.787342548,1780294755.786571026,0.04117000102996826,-0.186831995844841,9.777116775512695,0.00022073179292690884,0.010804251045125161,0.0013263455086986028
1780294755.792326689,1780294755.791549921,0.038752999156713486,-0.18439500033855438,9.774765968322754,-0.0009949772688641753,0.010174501872710217,0.001941277336549372
1780294755.796998978,1780294755.796624660,0.041154999285936356,-0.17958800494670868,9.774827003479004,-0.0016033467713054905,0.010796571570452006,0.0019548385221230514
1780294755.802420378,1780294755.801723242,0.03397800028324127,-0.18042300641536713,9.777233123779297,-0.003031113204510161,0.008729893026208559,0.0019388163832476002
1780294755.810408115,1780294755.806535244,0.043589998036623,-0.18446199595928192,9.779536247253418,-0.002216079540699918,0.00955607945730439,0.0019431623552580899
1780294755.813601494,1780294755.811558723,0.04839000105857849,-0.19168299436569214,9.780214309692383,-0.0010013652144386133,0.012059735922969267,0.0007404210056853286
1780294755.817069769,1780294755.816581011,0.043584998697042465,-0.19167199730873108,9.77943229675293,0.00021827087213442762,0.012057293304907419,0.000730123557836591
1780294755.822235346,1780294755.821556091,0.046066999435424805,-0.18700000643730164,9.78906536102295,-0.0016087223775692657,0.010807899367758424,0.001341791712981
1780294755.827468157,1780294755.826962233,0.04598399996757507,-0.19167199730873108,9.779424667358398,0.00021535617040848825,0.010815578842431579,0.0007132986345379699
1780294755.832488298,1780294755.831593990,0.048347000032663345,-0.18679699301719666,9.774698257446289,-0.0009920626159021719,0.011416216335186058,0.0019581023248665744
1780294755.837288857,1780294755.836642027,0.04679799824953079,-0.18046699464321136,9.780381202697754,-0.0005811597463207048,0.013277976076856688,0.0019799014947266763
1780294755.842140436,1780294755.841576099,0.036451999098062515,-0.18696700036525726,9.786704063415527,0.0014457609757620915,0.010790498314811004,0.001929094935010498
1780294755.848021507,1780294755.846562386,0.041290998458862305,-0.18463100492954254,9.791508674621582,0.0014428637477798736,0.009548783852335164,0.0019122875017102436
1780294755.852946758,1780294755.852364063,0.0340300016105175,-0.1917410045862198,9.784249305725098,0.00022610739919068408,0.010792924288116044,0.001939392447877817
1780294755.856758595,1780294755.856312037,0.03875499963760376,-0.18199099600315094,9.774800300598145,0.00023148302170910467,0.010781596490809627,0.002552439387057031
1780294755.867237091,1780294755.866292000,0.04190700128674507,-0.18191200494766235,9.769207000732422,0.00022514746485653985,0.010379019120524996,0.0019337899267653446
1780294755.867275953,1780294755.866758585,0.031537000089883804,-0.18436099588871002,9.7723970413208,0.00023396138373601652,0.009528555271324669,0.0031486613379190427
1780294755.874833345,1780294755.873436451,0.04119500145316124,-0.17965500056743622,9.77961254119873,0.0014403853694983162,0.010801825071820122,0.0013160655508482318
1780294755.876996517,1780294755.876557589,0.04357200115919113,-0.1820250004529953,9.777177810668945,0.001435009763234541,0.01081315286912654,0.0007030186116690177
1780294755.882296324,1780294755.881714582,0.04125100001692772,-0.1845639944076538,9.786722183227539,0.000830567253065892,0.010803047421148347,0.0013211968172835247
1780294755.887231827,1780294755.886567593,0.04196599870920181,-0.1916390061378479,9.777044296264648,-0.0006006201327932762,0.009575487243744699,0.0007033502064335892
1780294755.892581224,1780294755.891784668,0.03872799873352051,-0.19157099723815918,9.772269248962402,-0.0003836931784794377,0.010794145597146969,0.001944541139292895
1780294755.897083044,1780294755.896657944,0.043526001274585724,-0.19157099723815918,9.772253036499023,0.00022610739919068408,0.010792924288116044,0.001939392447877817
1780294755.903251171,1780294755.901575327,0.03876800090074539,-0.1916390061378479,9.777055740356445,-0.0003915471630247702,0.012058514613938344,0.0007352723142702505
1780294755.907062531,1780294755.906597376,0.041179999709129333,-0.20128600299358368,9.779302597045898,-0.001004279932419198,0.010818021460493427,0.0007235960823867077
1780294755.913175106,1780294755.911601305,0.04199500009417534,-0.1884790062904358,9.780282020568848,-0.001004279932419198,0.010818021460493427,0.0007235960823867077
1780294755.916995764,1780294755.916572809,0.04834999889135361,-0.18199099600315094,9.774767875671387,-0.0010013652144386133,0.012059735922969267,0.0007404210056853286
1780294755.922243357,1780294755.921549320,0.03718699887394905,-0.18365000188350677,9.77877140045166,0.00021827087213442762,0.012057293304907419,0.000730123557836591
1780294755.927454472,1780294755.926922560,0.03401299938559532,-0.18690000474452972,9.781926155090332,0.0014486756287240949,0.012032212777286846,0.0019459199233277003
1780294755.935277462,1780294755.934721470,0.03643200173974037,-0.1869339942932129,9.784311294555664,-0.0003944444235162789,0.010816800151462502,0.0007184473259530482
1780294755.936355352,1780294755.935974360,0.034074001014232635,-0.18459799885749817,9.789140701293945,0.00022610739919068408,0.010792924288116044,0.001939392447877817
1780294755.942929983,1780294755.941321373,0.04600699990987778,-0.18689900636672974,9.781885147094727,0.001456512188289642,0.010767843760495471,0.0031551886833317633
1780294755.952165604,1780294755.947899342,0.0451119989156723,-0.19154800474643707,9.770652770996094,0.0002375393075003898,0.009520997511435687,0.0035573650190070054
1780294755.955671310,1780294755.955168724,0.04120799899101257,-0.18930299580097198,9.781867027282715,0.00021783454869004544,0.00956253658264932,0.0013095379453611858
1780294755.957278013,1780294755.956802845,0.043630000203847885,-0.18453000485897064,9.784320831298828,0.0002236464946528482,0.012045965507601002,0.0013431704970158051
1780294755.966551065,1780294755.965387821,0.038853999227285385,-0.18216000497341156,9.786765098571777,0.00021245892617162486,0.009573864379955737,0.000696491071200553
1780294755.966785669,1780294755.966269493,0.0436519980430603,-0.18216000497341156,9.786748886108398,0.0008115257162939815,0.009595314269997157,-0.0005347339760652961
1780294755.972777605,1780294755.971560240,0.040383998304605484,-0.18685400485992432,9.778714179992676,0.00021245892617162486,0.009573864379955737,0.000696491071200553
1780294755.976912022,1780294755.976548910,0.043547000735998154,-0.1892009973526001,9.774680137634277,-0.0009935112298932807,0.010795367946475194,0.0019496898307079732
1780294755.984116077,1780294755.981703043,0.04358899965882301,-0.18686500191688538,9.779501914978027,0.00022073179292690884,0.010804251045125161,0.0013263455086986028
1780294755.987181187,1780294755.985954046,0.0435279980301857,-0.18916699290275574,9.772287368774414,-0.0004051956360438294,0.010839454705778037,-0.0005076289973884321
1780294755.994517326,1780294755.993053198,0.043508000671863556,-0.18913400173187256,9.76989459991455,-0.001004279932419198,0.010818021460493427,0.0007235960823867077
1780294755.997088432,1780294755.996539354,0.043533001095056534,-0.18195700645446777,9.772391319274902,-0.0005902703449866012,0.012465263576398447,0.0011512889602886436
1780294756.007529259,1780294756.004659891,0.038853999227285385,-0.18216000497341156,9.786765098571777,-0.0009984679864563951,0.01330145038544511,0.0007572459940025309
1780294756.009403229,1780294756.008295774,0.04368799924850464,-0.1870339959859848,9.791465759277344,0.000829537553794025,0.01267693702934417,0.0007333873605801139
1780294756.012666464,1780294756.011574745,0.04598800092935562,-0.18686500191688538,9.77949333190918,0.0014486756287240949,0.012032212777286846,0.0019459199233277003
1780294756.018258572,1780294756.016810179,0.04600699990987778,-0.18689900636672974,9.781885147094727,-0.0010013652144386133,0.012059735922969267,0.0007404210056853286
1780294756.022593498,1780294756.021812201,0.04360700026154518,-0.1885019987821579,9.78187084197998,-0.0001902059753780647,0.011230303764295511,0.0007223394032475624
1780294756.029633284,1780294756.025894880,0.050804998725652695,-0.18689900636672974,9.781869888305664,0.0008266402607932257,0.011435222566868328,0.0007165623722629116
1780294756.034026861,1780294756.032691240,0.05328800156712532,-0.18062500655651093,9.791524887084961,0.0014385876057256878,0.010805595109237558,0.001111704867777195
1780294756.044377804,1780294756.036572933,0.050811998546123505,-0.17728500068187714,9.782007217407227,0.00021535617040848825,0.010815578842431579,0.0007132986345379699
1780294756.044405937,1780294756.042034388,0.05318399891257286,-0.18686500191688538,9.779468536376953,0.0014379069912167591,0.012054867331602381,0.0007198261099878533
1780294756.047374487,1780294756.046544313,0.048409998416900635,-0.18209199607372284,9.781947135925293,0.0002232101549538207,0.009551209825640202,0.0019225848845403999
1780294756.054588795,1780294756.052340508,0.04121600091457367,-0.17728599905967712,9.7820405960083,0.0002232101549538207,0.009551209825640202,0.0019225848845403999
1780294756.060429335,1780294756.056564331,0.04361400008201599,-0.1788879930973053,9.78200912475586,0.00021535617040848825,0.010815578842431579,0.0007132986345379699
1780294756.064798117,1780294756.062361717,0.04355200007557869,-0.18199099600315094,9.774784088134766,-0.001005728546410307,0.01019715642702575,0.0007151835882281065
1780294756.067133904,1780294756.066539526,0.0387750007212162,-0.1820250004529953,9.777193069458008,-0.0010018015541376408,0.009564980241008469,0.0013198180332487195
1780294756.073673487,1780294756.072285175,0.048367999494075775,-0.18442800641059875,9.777127265930176,-0.0009827600173657302,0.010772713392159659,0.0031757837090664012
1780294756.077111959,1780294756.076520681,0.04362700134515762,-0.18933600187301636,9.784252166748047,-0.0009935112298932807,0.010795367946475194,0.0019496898307079732
1780294756.106702805,1780294756.086008549,0.03393299877643585,-0.18836699426174164,9.772331237792969,-0.0005850343336168525,0.0116223564467898,0.001957473985297002
1780294756.129146338,1780294756.086845636,0.04357200115919113,-0.1820250004529953,9.777177810668945,0.00021827087213442762,0.012057293304907419,0.000730123557836591
1780294756.132215500,1780294756.092174768,0.03641499951481819,-0.18209299445152283,9.781987190246582,-0.0009906140019110628,0.012037082408951034,0.0019665148190251753
1780294756.134319305,1780294756.096537828,0.03635599836707115,-0.18199099600315094,9.774807929992676,-0.0016111832008338751,0.012060940587243382,0.0007455697621189881
1780294756.134379864,1780294756.102629423,0.03400300070643425,-0.17244499921798706,9.779741287231445,0.0014457609757620915,0.010790498314811004,0.001929094935010498
1780294756.145238876,1780294756.112842560,0.0356220006942749,-0.17247900366783142,9.78212833404541,0.0002270847910139043,0.01120682841540979,0.001944994968990289
1780294756.145277500,1780294756.115987301,0.043675001710653305,-0.17738699913024902,9.78921127319336,-0.0016047953852965995,0.01017572318174114,0.0019464260279644502
1780294756.145296335,1780294756.116455793,0.03885500133037567,-0.1797569990158081,9.786800384521484,-0.0016004319883063246,0.012038286032927848,0.0019716635104402537
1780294756.145321131,1780294756.122799635,0.033976998180150986,-0.1820250004529953,9.777209281921387,-0.001004279932419198,0.010818021460493427,0.0007235960823867077
1780294756.145333052,1780294756.126681566,0.04121299833059311,-0.18209299445152283,9.781970977783203,0.0002232101549538207,0.009551209825640202,0.0019225848845403999
1780294756.145344257,1780294756.132201672,0.03561899811029434,-0.17728599905967712,9.782058715820312,0.0014431429375679266,0.011211942516939624,0.0015260112000147928
1780294756.145355225,1780294756.138300419,0.043692998588085175,-0.17982399463653564,9.791569709777832,0.00021827087213442762,0.012057293304907419,0.000730123557836591
1780294756.145366192,1780294756.141636133,0.03884100168943405,-0.18213799595832825,9.78516960144043,-0.0009925512955591366,0.01120927207376894,0.0019552923518204456
1780294756.150067806,1780294756.147816181,0.038812000304460526,-0.18449600040912628,9.781944274902344,0.00022610739919068408,0.010792924288116044,0.001939392447877817
1780294756.159263611,1780294756.153121233,0.03160100057721138,-0.17725299298763275,9.779680252075195,0.0014379069912167591,0.012054867331602381,0.0007198261099878533
1780294756.159321308,1780294756.156532049,0.03409900143742561,-0.17742100358009338,9.791637420654297,0.0008280889398029161,0.012056070955579194,0.0007249748664215127
1780294756.162559748,1780294756.162190199,0.034035999327898026,-0.1821269989013672,9.784387588500977,-0.0003915471630247702,0.012058514613938344,0.0007352723142702505
1780294756.166794777,1780294756.166322231,0.03564399853348732,-0.17893299460411072,9.785226821899414,-0.0009935112298932807,0.010795367946475194,0.0019496898307079732
1780294756.174601316,1780294756.174337626,0.03644999861717224,-0.1893710047006607,9.786669731140137,-0.0009910502765915089,0.009542325686692934,0.002545911781569985
1780294756.177695274,1780294756.176804066,0.02923000045120716,-0.19414399564266205,9.784231185913086,-0.002819073306840296,0.010166822398037062,0.0025697704800109835
1780294756.183015823,1780294756.181627274,0.026792999356985092,-0.19167399406433105,9.779489517211914,-0.0010018015541376408,0.009564980241008469,0.0013198180332487195
1780294756.187891960,1780294756.186535120,0.03634899854660034,-0.19160500168800354,9.774669647216797,-0.0003865904389709464,0.009552431134671127,0.0019277161509756928
1780294756.191877842,1780294756.191541672,0.043643999844789505,-0.19337600469589233,9.78658676147461,0.00022610739919068408,0.010792924288116044,0.001939392447877817
1780294756.196898937,1780294756.196532726,0.03405800089240074,-0.1797569990158081,9.786815643310547,-0.0003944444235162789,0.010816800151462502,0.0007184473259530482
1780294756.203071117,1780294756.202223778,0.03889499977231026,-0.17982399463653564,9.791585922241211,-0.0010028138284297224,0.011438870889501592,0.0007320085115267275
1780294756.207760811,1780294756.207279921,0.04125399887561798,-0.1797569990158081,9.786791801452637,-0.002210267399681372,0.012039508382256073,0.001976812201855332
1780294756.212461472,1780294756.211515665,0.03643300011754036,-0.18453000485897064,9.784345626831055,-0.0015979710350045528,0.01078524481344289,0.0025678854613022657
1780294756.216873407,1780294756.216550350,0.03392999991774559,-0.19157199561595917,9.772284507751465,0.00022514746485653985,0.010379019120524996,0.0019337899267653446
1780294756.221519947,1780294756.221050024,0.04112900048494339,-0.18916800618171692,9.772295951843262,0.00022073179292690884,0.010804251045125161,0.0013263455086986028
1780294756.227438927,1780294756.226575851,0.03876600041985512,-0.19404199719429016,9.777019500732422,0.00021535617040848825,0.010815578842431579,0.0007132986345379699
1780294756.231777430,1780294756.231346846,0.043623000383377075,-0.19414299726486206,9.784183502197266,-0.0010028138284297224,0.011438870889501592,0.0007320085115267275
1780294756.236867428,1780294756.236557722,0.04360499978065491,-0.19170600175857544,9.781825065612793,-0.00038514179247054674,0.010173279523381993,0.001936128645134294
1780294756.242069960,1780294756.241561651,0.0435279980301857,-0.18836599588394165,9.772298812866211,0.0002215520998577359,0.010386576880413978,0.0015250861156402191
1780294756.248143673,1780294756.247721672,0.04598100110888481,-0.19647899270057678,9.779356002807617,0.001435009763234541,0.01081315286912654,0.0007030186116690177
1780294756.252492905,1780294756.251701832,0.04351300001144409,-0.19154800474643707,9.770657539367676,0.0002202081982917921,0.012885102599792213,0.0007413286000615356
1780294756.259493113,1780294756.256079435,0.0340300016105175,-0.1917410045862198,9.784249305725098,0.00022610739919068408,0.010792924288116044,0.001939392447877817
1780294756.262130260,1780294756.261599541,0.0411980003118515,-0.2037239968776703,9.781660079956055,0.0008330282063676638,0.009550005161366087,0.0019174361931253217
1780294756.266973972,1780294756.266561270,0.03880700096487999,-0.19170600175857544,9.781841278076172,0.0002139075564173792,0.010194729413423411,0.0007048861403793688
1780294756.272427559,1780294756.271544456,0.05084099993109703,-0.19177299737930298,9.78658676147461,0.0002168048006542426,0.011436444916196553,0.0007217111286965711
1780294756.276971102,1780294756.276544094,0.05161900073289871,-0.18531900644302368,9.783485412597656,0.0006261717850538659,0.009557964476013108,0.0015104428908367356
1780294756.281346560,1780294756.281025648,0.053206998854875565,-0.18209199607372284,9.781930923461914,0.0014403853694983162,0.010801825071820122,0.0013160655508482318
1780294756.294548035,1780294756.293977022,0.053185999393463135,-0.18446099758148193,9.77950382232666,0.0008359429243482484,0.01079171962384193,0.0019342436264255761
1780294756.295238018,1780294756.294689655,0.04600200057029724,-0.1941089928150177,9.781782150268555,0.0002232101549538207,0.009551209825640202,0.0019225848845403999
1780294756.296856165,1780294756.296545506,0.04841899871826172,-0.19654600322246552,9.78413200378418,0.0014428637477798736,0.009548783852335164,0.0019122875017102436
1780294756.302066326,1780294756.301546335,0.04360099881887436,-0.1981150060892105,9.781732559204102,0.002262452873469518,0.01078131769113306,0.0023309395458840057
1780294756.307124376,1780294756.306544542,0.04844199866056442,-0.19177299737930298,9.78659439086914,0.0014457609757620915,0.010790498314811004,0.001929094935010498
1780294756.312285185,1780294756.311538219,0.050783999264240265,-0.18926799297332764,9.77944278717041,0.002662499720570397,0.009546340193976014,0.0019019899888429246
1780294756.317016602,1780294756.316534519,0.04846600070595741,-0.18700000643730164,9.789056777954102,0.0014335610192062695,0.010192286795361563,0.0006946061175104165
1780294756.322067499,1780294756.321564913,0.05080699920654297,-0.1844950020313263,9.781904220581055,0.00020460494162629242,0.010838250041503922,-0.0005127777213128009
1780294756.327229738,1780294756.326745987,0.045180998742580414,-0.18685400485992432,9.778697967529297,-0.0010061997360689052,0.009990212165608633,0.000712391040161763
1780294756.332185984,1780294756.331059694,0.0388140007853508,-0.18209299445152283,9.781978607177734,-0.0009935112298932807,0.010795367946475194,0.0019496898307079732
1780294756.336959362,1780294756.336522341,0.05075100064277649,-0.1795870065689087,9.774794578552246,0.00022902210091662345,0.012034638750591886,0.001956217436195019
1780294756.342051268,1780294756.341542006,0.04598100110888481,-0.19647899270057678,9.779356002807617,0.0014432825974805344,0.012043539534295964,0.0013328729841484861
1780294756.347079515,1780294756.346566916,0.043529000133275986,-0.18676400184631348,9.772321701049805,0.00022902210091662345,0.012034638750591886,0.001956217436195019
1780294756.351922989,1780294756.351518154,0.038784001022577286,-0.18685400485992432,9.778719902038574,0.00021177824664411497,0.010823135562023259,0.0003046123134112112
1780294756.356866837,1780294756.356525421,0.03885199874639511,-0.1845639944076538,9.786730766296387,0.0002168048006542426,0.011436444916196553,0.0007217111286965711
1780294756.361941576,1780294756.361544132,0.038802001625299454,-0.18046799302101135,9.780406951904297,0.00023260002468099674,0.012027080990702902,0.002364921117282982
1780294756.366904974,1780294756.366525412,0.041152000427246094,-0.18439500033855438,9.774757385253906,0.0014457609757620915,0.010790498314811004,0.001929094935010498
1780294756.372285128,1780294756.371499062,0.03391600027680397,-0.18432700634002686,9.76999568939209,0.0026654143735324004,0.010788054656451856,0.001918814977160127
1780294756.377012253,1780294756.376513720,0.043526001274585724,-0.19157099723815918,9.772253036499023,0.001430646366244266,0.008950588977642532,0.0006777811291932142
1780294756.383655071,1780294756.382330418,0.048347000032663345,-0.18679699301719666,9.774698257446289,0.00021491984696410607,0.008320839805227588,0.0012927129570439835
1780294756.387032747,1780294756.386653423,0.05164099857211113,-0.19177299737930298,9.78658390045166,0.0002232101549538207,0.009551209825640202,0.0019225848845403999
1780294756.392083168,1780294756.391520500,0.048406001180410385,-0.18689900636672974,9.781877517700195,0.00022610739919068408,0.010792924288116044,0.001939392447877817
1780294756.396928072,1780294756.396526575,0.05075399950146675,-0.1747799962759018,9.774863243103027,-0.0003836931784794377,0.010794145597146969,0.001944541139292895
1780294756.402799845,1780294756.401559591,0.04117700085043907,-0.1772180050611496,9.777255058288574,-0.0009964259478738656,0.009553653483999352,0.001932864842390771
1780294756.407015562,1780294756.406524897,0.04117000102996826,-0.186831995844841,9.777116775512695,0.00022176154096271167,0.008930361436929338,0.0019141723903817987
1780294756.412121296,1780294756.411540508,0.04047900065779686,-0.18220500648021698,9.789950370788574,0.001436371122289561,0.008314626109451004,0.0014867587022679158
1780294756.418209553,1780294756.416542292,0.04603099822998047,-0.1821260005235672,9.784347534179688,0.00021783454869004544,0.00956253658264932,0.0013095379453611858
1780294756.424864531,1780294756.421546936,0.036378998309373856,-0.1772180050611496,9.777271270751953,-0.0009935112298932807,0.010795367946475194,0.0019496898307079732
1780294756.428843737,1780294756.427826405,0.03156000003218651,-0.17958800494670868,9.774859428405762,-0.0009881356236295055,0.010784040149168776,0.0025627367698871873
1780294756.432612658,1780294756.431538105,0.03643200173974037,-0.1869339942932129,9.784311294555664,-0.001004279932419198,0.010818021460493427,0.0007235960823867077
1780294756.436936617,1780294756.436523199,0.03408300131559372,-0.18220600485801697,9.789972305297852,-0.0010013652144386133,0.012059735922969267,0.0007404210056853286
1780294756.441916227,1780294756.441543818,0.029159000143408775,-0.18199199438095093,9.774832725524902,-0.0010013652144386133,0.012059735922969267,0.0007404210056853286
1780294756.447107553,1780294756.446528912,0.02674099989235401,-0.18195800483226776,9.772448539733887,0.00022902210091662345,0.012034638750591886,0.001956217436195019
1780294756.454143524,1780294756.453251123,0.03397500142455101,-0.18442900478839874,9.777174949645996,0.00022902210091662345,0.012034638750591886,0.001956217436195019
1780294756.457970381,1780294756.457487106,0.03882699832320213,-0.1917400062084198,9.784234046936035,0.0014457609757620915,0.010790498314811004,0.001929094935010498
1780294756.462076187,1780294756.461691380,0.038798000663518906,-0.18687699735164642,9.780315399169922,0.00021603684993599814,0.009566324305120865,0.0011051773923273119
1780294756.467750788,1780294756.466523886,0.03877599909901619,-0.17962199449539185,9.777228355407715,0.0020526817341751354,0.00954756150300694,0.0019071386802580028
1780294756.472277641,1780294756.471823454,0.04836000129580498,-0.1771949976682663,9.775634765625,0.0006235538118782822,0.009979408678141725,0.001107359025803868
1780294756.476960897,1780294756.476671219,0.04358899965882301,-0.18686500191688538,9.779501914978027,0.00022073179292690884,0.010804251045125161,0.0013263455086986028
1780294756.484255314,1780294756.482512712,0.04117000102996826,-0.186831995844841,9.777116775512695,-0.0003944444235162789,0.010816800151462502,0.0007184473259530482
1780294756.486960649,1780294756.486650944,0.038729000836610794,-0.189969003200531,9.772292137145996,0.00021961477370037143,0.009558766545231884,0.0015138810734152746
1780294756.491921663,1780294756.491537809,0.029130998998880386,-0.19397500157356262,9.77226734161377,-0.001601898027277219,0.011417437644216983,0.0019632510162816527
1780294756.496831417,1780294756.496517897,0.03392999991774559,-0.19157199561595917,9.772284507751465,-0.002210267399681372,0.012039508382256073,0.001976812201855332
1780294756.502387524,1780294756.501727343,0.038690000772476196,-0.1890999972820282,9.767518043518066,-0.0016033467713054905,0.010796571570452006,0.0019548385221230514
1780294756.506839037,1780294756.506525278,0.04356899857521057,-0.186831995844841,9.777108192443848,-0.0010067408207023885,0.012071063720275685,0.00012737413152469582
1780294756.511859894,1780294756.511523247,0.033994998782873154,-0.1844629943370819,9.779568672180176,0.00022219786440709385,0.011425117118890136,0.001334758002857204
1780294756.517763138,1780294756.516600609,0.03397500142455101,-0.18442900478839874,9.777174949645996,0.0014320949802353751,0.009571438406650697,0.0006861936233518154
1780294756.522577047,1780294756.521529198,0.04035700112581253,-0.1868090033531189,9.775524139404297,0.00265466316100485,0.01081070921076739,0.0006927211638202799
1780294756.526992798,1780294756.526636362,0.038750000298023224,-0.18920199573040009,9.774696350097656,0.0014443123617709826,0.01016963224104603,0.001920699865831682
1780294756.532923698,1780294756.531121016,0.041127000004053116,-0.19157099723815918,9.772261619567871,0.0014457609757620915,0.010790498314811004,0.001929094935010498
1780294756.536875725,1780294756.536504984,0.03884999826550484,-0.18696700036525726,9.786696434020996,0.00022610739919068408,0.010792924288116044,0.001939392447877817
1780294756.544049263,1780294756.543753386,0.0484439991414547,-0.18937000632286072,9.786628723144531,0.00021535617040848825,0.010815578842431579,0.0007132986345379699
1780294756.550352097,1780294756.546526194,0.04194699972867966,-0.18197999894618988,9.773991584777832,0.0010303900292744752,0.01164176527352741,0.0007176619014910824
1780294756.554714918,1780294756.553969145,0.045851998031139374,-0.1818220019340515,9.762811660766602,0.00022465878519957504,0.010172075899405178,0.0019309799537192158
1780294756.556872606,1780294756.556519747,0.036313001066446304,-0.1867309957742691,9.769952774047852,0.00021245892617162486,0.009573864379955737,0.000696491071200553
1780294756.564753532,1780294756.561773062,0.03876800090074539,-0.1916390061378479,9.777055740356445,-0.0003865904389709464,0.009552431134671127,0.0019277161509756928
