bag_ts,header_stamp,ax,ay,az,wx,wy,wz
1780294752.560665369,1780294752.523636580,0.0,-0.009800000000000001,9.8,0.0,-0.0005235987755982988,0.00017453292519943296
1780294752.560715199,1780294752.531088114,0.0,-0.009800000000000001,9.8,0.0,-0.00034906585039886593,0.00017453292519943296
1780294752.560725927,1780294752.542197466,0.0,-0.009800000000000001,9.8,0.0,-0.00034906585039886593,0.00017453292519943296
1780294752.561444521,1780294752.551227331,-0.009800000000000001,-0.009800000000000001,9.8,0.0,-0.00034906585039886593,0.00017453292519943296
1780294752.591418028,1780294752.562116385,-0.009800000000000001,-0.009800000000000001,9.8,0.0,-0.00034906585039886593,0.0
1780294752.591480494,1780294752.571485281,-0.009800000000000001,-0.019600000000000003,9.7902,0.0,-0.00034906585039886593,0.0
1780294752.591493845,1780294752.582240343,0.0,0.0,9.8,0.0,-0.0005235987755982988,0.0
1780294752.592906713,1780294752.591466665,-0.009800000000000001,0.0,9.7902,0.0,-0.00034906585039886593,0.0
1780294752.602538824,1780294752.602161884,0.0,0.0,9.8,-0.00017453292519943296,-0.00034906585039886593,0.0
1780294752.611467123,1780294752.611341238,0.0,-0.009800000000000001,9.8,0.0,-0.0005235987755982988,0.0
1780294752.622752905,1780294752.622583866,-0.009800000000000001,-0.009800000000000001,9.8,-0.00017453292519943296,-0.0005235987755982988,0.00017453292519943296
1780294752.632048845,1780294752.631139278,-0.009800000000000001,-0.009800000000000001,9.7902,0.0,-0.0005235987755982988,0.00017453292519943296
1780294752.643185616,1780294752.642158747,-0.009800000000000001,-0.009800000000000001,9.7902,0.0,-0.0005235987755982988,0.00017453292519943296
1780294752.651458979,1780294752.651231766,0.0,-0.019600000000000003,9.7902,0.0,-0.00034906585039886593,0.00017453292519943296
1780294752.662464619,1780294752.662136793,0.0,-0.009800000000000001,9.8,-0.00017453292519943296,-0.0005235987755982988,0.0
1780294752.671425343,1780294752.671240091,0.0,-0.009800000000000001,9.8,0.0,-0.00034906585039886593,0.00017453292519943296
1780294752.682817698,1780294752.682529211,0.0,-0.009800000000000001,9.8,-0.00017453292519943296,-0.00034906585039886593,0.00034906585039886593
1780294752.691395283,1780294752.691216469,0.0,-0.009800000000000001,9.8,0.0,-0.0005235987755982988,0.00017453292519943296
1780294752.702482462,1780294752.702205896,0.0,-0.019600000000000003,9.8,-0.00017453292519943296,-0.0005235987755982988,0.0
1780294752.711593390,1780294752.711115360,0.0,-0.019600000000000003,9.8,0.0,-0.00034906585039886593,0.00017453292519943296
1780294752.722860575,1780294752.722135544,0.0,-0.019600000000000003,9.8,-0.00017453292519943296,-0.0005235987755982988,0.00034906585039886593
1780294752.732037544,1780294752.731702805,0.0,-0.019600000000000003,9.7902,0.0,-0.0005235987755982988,0.00017453292519943296
1780294752.742370605,1780294752.742156506,-0.009800000000000001,-0.019600000000000003,9.8098,0.0,-0.0005235987755982988,0.00017453292519943296
1780294752.751343489,1780294752.751178741,0.0,-0.009800000000000001,9.7902,0.0,-0.0005235987755982988,0.00017453292519943296
1780294752.763824701,1780294752.762855291,0.0,-0.009800000000000001,9.7902,0.0,-0.00034906585039886593,0.0
1780294752.771403313,1780294752.771200895,0.0,-0.019600000000000003,9.8,-0.00017453292519943296,-0.0005235987755982988,0.0
1780294752.782919168,1780294752.782622099,-0.009800000000000001,-0.009800000000000001,9.8,-0.00017453292519943296,-0.00034906585039886593,0.0
1780294752.795096874,1780294752.791308641,-0.009800000000000001,-0.009800000000000001,9.8,-0.00017453292519943296,-0.0005235987755982988,0.00017453292519943296
1780294752.802682877,1780294752.802337646,0.0,-0.019600000000000003,9.7902,-0.00017453292519943296,-0.0005235987755982988,0.00017453292519943296
1780294752.811490059,1780294752.811256170,0.0,-0.019600000000000003,9.8,0.0,-0.00034906585039886593,0.0
1780294752.822710037,1780294752.822479963,0.0,-0.019600000000000003,9.7902,-0.00017453292519943296,-0.00034906585039886593,0.0
1780294752.831421614,1780294752.831106186,0.0,-0.019600000000000003,9.8,0.0,-0.00034906585039886593,0.00017453292519943296
1780294752.842623711,1780294752.842292309,0.0,-0.029400000000000003,9.7902,0.0,-0.0005235987755982988,0.00017453292519943296
1780294752.851425648,1780294752.851206779,-0.009800000000000001,-0.009800000000000001,9.7902,0.0,-0.00034906585039886593,0.00017453292519943296
1780294752.864422798,1780294752.862171888,0.0,-0.019600000000000003,9.7902,0.0,-0.00034906585039886593,0.00017453292519943296
1780294752.871312380,1780294752.871104956,0.0,-0.019600000000000003,9.7902,0.0,-0.0005235987755982988,0.00034906585039886593
1780294752.884175539,1780294752.882414818,0.0,-0.009800000000000001,9.8,0.0,-0.00034906585039886593,0.00034906585039886593
1780294752.895652294,1780294752.891251802,0.0,-0.019600000000000003,9.7902,0.0,-0.00034906585039886593,0.00017453292519943296
1780294752.903854132,1780294752.902112484,0.0,-0.019600000000000003,9.8,0.0,-0.0005235987755982988,0.00017453292519943296
1780294752.911569357,1780294752.911361694,-0.009800000000000001,-0.009800000000000001,9.8098,0.0,-0.0005235987755982988,0.0
1780294752.923977375,1780294752.923729897,0.0,-0.009800000000000001,9.8,0.0,-0.0005235987755982988,0.00017453292519943296
1780294752.933337450,1780294752.931472063,0.0,-0.009800000000000001,9.7902,0.0,-0.0005235987755982988,0.00017453292519943296
1780294752.942515135,1780294752.942342520,0.0,-0.009800000000000001,9.8,0.0,-0.00034906585039886593,0.0
1780294752.959719896,1780294752.951209784,0.0,-0.009800000000000001,9.8,-0.00017453292519943296,-0.00034906585039886593,0.0
1780294752.964823723,1780294752.962285042,0.0,0.0,9.8,0.0,-0.0005235987755982988,0.00017453292519943296
1780294752.972598553,1780294752.971870899,0.0,-0.009800000000000001,9.8,-0.00017453292519943296,-0.0005235987755982988,0.0
1780294752.983926058,1780294752.982130527,0.0,-0.009800000000000001,9.8,0.0,-0.0005235987755982988,0.0
1780294752.991378307,1780294752.991118193,0.0,-0.009800000000000001,9.8,0.0,-0.0005235987755982988,0.0
1780294753.002393007,1780294753.002206802,0.0,-0.009800000000000001,9.8098,0.0,-0.0005235987755982988,0.0
1780294753.011644125,1780294753.011064053,-0.009800000000000001,-0.019600000000000003,9.7902,0.0,-0.00034906585039886593,0.0
1780294753.023345709,1780294753.022495508,0.0,-0.009800000000000001,9.8,0.0,-0.00034906585039886593,0.00017453292519943296
1780294753.029916286,1780294753.029739618,0.0,-0.009800000000000001,9.8098,0.0,-0.0005235987755982988,0.00017453292519943296
1780294753.043404341,1780294753.043213606,0.0,-0.009800000000000001,9.8,0.0,-0.00034906585039886593,0.00017453292519943296
1780294753.051607609,1780294753.051187992,0.0,-0.019600000000000003,9.7902,0.0,-0.0005235987755982988,0.00017453292519943296
1780294753.063237667,1780294753.063090324,-0.009800000000000001,-0.009800000000000001,9.7902,0.0,-0.00034906585039886593,0.00017453292519943296
1780294753.070263624,1780294753.070073605,0.0,-0.019600000000000003,9.8,-0.00017453292519943296,-0.00034906585039886593,0.00017453292519943296
1780294753.084515810,1780294753.083487272,0.0,-0.009800000000000001,9.8,0.0,-0.00034906585039886593,0.00017453292519943296
1780294753.091303825,1780294753.091161251,0.0,-0.009800000000000001,9.8,-0.00017453292519943296,-0.00034906585039886593,0.00017453292519943296
1780294753.103596926,1780294753.103199959,0.0,-0.009800000000000001,9.8,0.0,-0.00034906585039886593,0.00017453292519943296
1780294753.112740040,1780294753.112520456,0.0,-0.019600000000000003,9.8,0.0,-0.0005235987755982988,0.0
1780294753.126286030,1780294753.125992775,-0.009800000000000001,-0.019600000000000003,9.8098,0.0,-0.00034906585039886593,0.00017453292519943296
1780294753.129880667,1780294753.129707575,-0.019600000000000003,-0.019600000000000003,9.8,0.0,-0.00034906585039886593,0.00017453292519943296
1780294753.140269995,1780294753.140074492,0.0,-0.019600000000000003,9.8,0.0,-0.0005235987755982988,0.00017453292519943296
1780294753.152794838,1780294753.152618408,-0.009800000000000001,-0.009800000000000001,9.7902,0.0,-0.00034906585039886593,0.0
1780294753.161524296,1780294753.161323309,-0.009800000000000001,-0.019600000000000003,9.8,0.0,-0.0005235987755982988,0.00034906585039886593
1780294753.171304703,1780294753.171085358,0.0,-0.019600000000000003,9.7902,-0.00017453292519943296,-0.00034906585039886593,0.0
1780294753.181262493,1780294753.181074381,0.0,-0.019600000000000003,9.8,0.0,-0.0005235987755982988,0.00017453292519943296
1780294753.192912817,1780294753.190857649,0.0,-0.009800000000000001,9.8,0.0,-0.00034906585039886593,0.0
1780294753.203852177,1780294753.203532219,-0.009800000000000001,-0.009800000000000001,9.8,0.0,-0.0005235987755982988,0.00017453292519943296
1780294753.209437609,1780294753.209253073,0.0,-0.009800000000000001,9.8,0.0,-0.00034906585039886593,0.0
1780294753.223341703,1780294753.223121166,-0.009800000000000001,-0.009800000000000001,9.7902,0.0,-0.0005235987755982988,0.0
1780294753.231302023,1780294753.231129885,0.0,-0.009800000000000001,9.8,0.0,-0.00034906585039886593,0.0
1780294753.241344690,1780294753.241128445,0.0,-0.019600000000000003,9.7902,0.0,-0.0005235987755982988,0.00017453292519943296
1780294753.250460625,1780294753.250141144,0.0,-0.019600000000000003,9.7902,-0.00017453292519943296,-0.0005235987755982988,0.00017453292519943296
1780294753.262367249,1780294753.262215614,0.0,-0.019600000000000003,9.8,0.0,-0.0005235987755982988,0.00017453292519943296
1780294753.286484003,1780294753.286251783,0.0,-0.009800000000000001,9.7902,0.0,-0.0005235987755982988,0.0
1780294753.298091173,1780294753.297873735,0.0,-0.009800000000000001,9.8,0.0,-0.0005235987755982988,0.00017453292519943296
1780294753.302625895,1780294753.298547745,0.0,-0.009800000000000001,9.8,0.0,-0.00034906585039886593,0.00017453292519943296
1780294753.305252552,1780294753.304294586,0.0,-0.009800000000000001,9.8,0.0,-0.00034906585039886593,0.00034906585039886593
1780294753.311256409,1780294753.311060190,0.0,-0.009800000000000001,9.8,-0.00017453292519943296,-0.0005235987755982988,0.0
1780294753.322805405,1780294753.322455168,0.0,-0.009800000000000001,9.7902,0.0,-0.0005235987755982988,0.00017453292519943296
1780294753.331362247,1780294753.331114769,0.0,-0.009800000000000001,9.7902,0.0,-0.00034906585039886593,0.00017453292519943296
1780294753.342257023,1780294753.342087269,0.0,-0.009800000000000001,9.7902,0.0,-0.00034906585039886593,0.0
1780294753.351357460,1780294753.351193428,0.0,-0.009800000000000001,9.7804,0.0,-0.00034906585039886593,0.00017453292519943296
1780294753.362375021,1780294753.362157106,0.0,-0.009800000000000001,9.7902,0.0,-0.0005235987755982988,0.0
1780294753.371488094,1780294753.371292114,-0.009800000000000001,-0.009800000000000001,9.8,0.0,-0.0005235987755982988,0.0
1780294753.383208990,1780294753.382303476,0.0,-0.019600000000000003,9.8,0.0,-0.00034906585039886593,0.0
1780294753.391383648,1780294753.391185284,0.0,0.0,9.8,-0.00017453292519943296,-0.0005235987755982988,0.00017453292519943296
1780294753.404122591,1780294753.403934717,0.0,-0.019600000000000003,9.8,-0.00017453292519943296,-0.0005235987755982988,0.00017453292519943296
1780294753.416288376,1780294753.416052580,0.0,-0.019600000000000003,9.8,0.0,-0.0005235987755982988,0.0
1780294753.422744751,1780294753.422554731,0.0,-0.019600000000000003,9.7902,0.0,-0.0005235987755982988,0.0
1780294753.431704283,1780294753.431467056,-0.009800000000000001,-0.009800000000000001,9.7902,0.0,-0.0005235987755982988,0.00017453292519943296
1780294753.445976973,1780294753.445825815,0.0,-0.019600000000000003,9.8,-0.00017453292519943296,-0.00034906585039886593,0.0
1780294753.454575539,1780294753.454185009,-0.009800000000000001,-0.019600000000000003,9.8,0.0,-0.0005235987755982988,0.00017453292519943296
1780294753.463665962,1780294753.462325096,0.0,-0.009800000000000001,9.7902,0.0,-0.00034906585039886593,0.00017453292519943296
1780294753.471209049,1780294753.471052408,-0.009800000000000001,-0.009800000000000001,9.8,0.0,-0.0005235987755982988,0.00017453292519943296
1780294753.482849121,1780294753.482106209,0.0,0.0,9.8,0.0,-0.00034906585039886593,0.0
1780294753.491216183,1780294753.491066694,0.0,-0.009800000000000001,9.8,0.0,-0.0005235987755982988,0.00017453292519943296
1780294753.504368067,1780294753.503200531,0.0,0.0,9.8,0.0,-0.00034906585039886593,0.00017453292519943296
1780294753.511705637,1780294753.511446953,-0.009800000000000001,-0.009800000000000001,9.7902,0.0,-0.0005235987755982988,0.0
1780294753.525914669,1780294753.525556564,0.0,-0.009800000000000001,9.7902,0.0,-0.0005235987755982988,0.00017453292519943296
1780294753.531777859,1780294753.531524181,0.0,-0.009800000000000001,9.8,0.0,-0.0005235987755982988,0.00034906585039886593
1780294753.542625904,1780294753.542167187,-0.009800000000000001,-0.019600000000000003,9.7902,0.0,-0.00034906585039886593,0.00017453292519943296
1780294753.551666021,1780294753.551189423,0.0,-0.019600000000000003,9.8,0.0,-0.00034906585039886593,0.00034906585039886593
1780294753.562985659,1780294753.562733412,-0.009800000000000001,-0.009800000000000001,9.8,0.0,-0.0005235987755982988,0.0
1780294753.571889400,1780294753.571473360,0.0,-0.009800000000000001,9.8098,0.0,-0.0005235987755982988,0.00017453292519943296
1780294753.582272291,1780294753.582099438,0.0,-0.009800000000000001,9.8,0.0,-0.00034906585039886593,0.00017453292519943296
1780294753.591325283,1780294753.591062069,0.0,-0.009800000000000001,9.8,0.0,-0.00034906585039886593,0.0
1780294753.602671385,1780294753.602508783,0.0,-0.019600000000000003,9.7902,0.0,-0.0005235987755982988,0.0
1780294753.611582518,1780294753.611402035,0.0,-0.009800000000000001,9.8,-0.00017453292519943296,-0.0005235987755982988,0.0
1780294753.622618437,1780294753.622430325,0.0,-0.009800000000000001,9.8,0.0,-0.00034906585039886593,0.0
1780294753.631311178,1780294753.631147385,-0.009800000000000001,-0.009800000000000001,9.8,-0.00017453292519943296,-0.0005235987755982988,0.00017453292519943296
1780294753.643336058,1780294753.642280579,0.0,-0.009800000000000001,9.8,0.0,-0.00034906585039886593,0.00017453292519943296
1780294753.652568102,1780294753.651443481,0.0,-0.009800000000000001,9.8098,-0.00017453292519943296,-0.00034906585039886593,0.00017453292519943296
1780294753.664478540,1780294753.663805246,0.0,-0.009800000000000001,9.8,0.0,-0.0005235987755982988,0.00017453292519943296
1780294753.672042847,1780294753.671035767,0.0,-0.019600000000000003,9.8098,-0.00017453292519943296,-0.0005235987755982988,0.00017453292519943296
1780294753.682800055,1780294753.682223797,0.0,-0.029400000000000003,9.8098,0.0,-0.0005235987755982988,0.00017453292519943296
1780294753.691619158,1780294753.691044331,0.0,-0.019600000000000003,9.8,0.0,-0.0005235987755982988,0.0
1780294753.704238176,1780294753.703346014,0.0,-0.019600000000000003,9.8,0.0,-0.0005235987755982988,0.00017453292519943296
1780294753.713621378,1780294753.712263584,0.0,-0.019600000000000003,9.8,0.0,-0.00034906585039886593,0.00017453292519943296
1780294753.722476244,1780294753.722219229,-0.009800000000000001,-0.009800000000000001,9.8,0.0,-0.00034906585039886593,0.00017453292519943296
1780294753.734410286,1780294753.731182337,0.0,-0.009800000000000001,9.7902,0.0,-0.0005235987755982988,0.00017453292519943296
1780294753.744362593,1780294753.742187262,-0.009800000000000001,-0.019600000000000003,9.7902,0.0,-0.00034906585039886593,0.00017453292519943296
1780294753.751478910,1780294753.751199961,-0.009800000000000001,-0.009800000000000001,9.8,-0.00017453292519943296,-0.00034906585039886593,0.00017453292519943296
1780294753.762327433,1780294753.762076139,0.0,-0.019600000000000003,9.8,0.0,-0.00034906585039886593,0.0
1780294753.773455381,1780294753.771042347,0.0,-0.009800000000000001,9.8098,0.0,-0.00034906585039886593,0.0
1780294753.783458948,1780294753.783075809,-0.009800000000000001,-0.019600000000000003,9.7902,-0.00017453292519943296,-0.0005235987755982988,0.00017453292519943296
1780294753.791399956,1780294753.791155100,-0.009800000000000001,-0.019600000000000003,9.7902,0.0,-0.00034906585039886593,0.0
1780294753.802392006,1780294753.802083492,-0.009800000000000001,-0.019600000000000003,9.8,0.0,-0.0005235987755982988,0.00017453292519943296
1780294753.811505795,1780294753.811211109,0.0,-0.019600000000000003,9.7902,0.0,-0.0005235987755982988,0.00017453292519943296
1780294753.822619677,1780294753.822428942,-0.009800000000000001,-0.019600000000000003,9.8,0.0,-0.0005235987755982988,0.00017453292519943296
1780294753.831318140,1780294753.831147194,-0.009800000000000001,-0.009800000000000001,9.8,0.0,-0.00034906585039886593,0.00017453292519943296
1780294753.842322826,1780294753.842130661,0.0,-0.009800000000000001,9.7902,0.0,-0.0005235987755982988,0.0
1780294753.853934050,1780294753.853698969,0.0,-0.009800000000000001,9.8,0.0,-0.00034906585039886593,0.0
1780294753.862520933,1780294753.862200975,-0.009800000000000001,-0.009800000000000001,9.8,0.0,-0.0005235987755982988,0.00017453292519943296
1780294753.871246815,1780294753.871022940,0.0,-0.009800000000000001,9.8,0.0,-0.0005235987755982988,0.00017453292519943296
1780294753.882438421,1780294753.882228136,0.0,-0.019600000000000003,9.8,0.0,-0.0005235987755982988,0.00017453292519943296
1780294753.893128872,1780294753.893026352,0.0,-0.019600000000000003,9.7902,-0.00017453292519943296,-0.0005235987755982988,0.00017453292519943296
1780294753.904262066,1780294753.902454376,-0.009800000000000001,-0.019600000000000003,9.8,0.0,-0.00034906585039886593,0.00017453292519943296
1780294753.911248446,1780294753.911046267,0.0,-0.009800000000000001,9.8,0.0,-0.00034906585039886593,0.00017453292519943296
1780294753.924130917,1780294753.923990488,0.0,-0.009800000000000001,9.7902,0.0,-0.00034906585039886593,0.00017453292519943296
1780294753.932017326,1780294753.931269646,0.0,-0.019600000000000003,9.8,0.0,-0.00034906585039886593,0.00017453292519943296
1780294753.948103189,1780294753.942114592,0.0,-0.009800000000000001,9.7902,0.0,-0.0005235987755982988,0.00017453292519943296
1780294753.952360630,1780294753.951702595,0.0,-0.019600000000000003,9.8,-0.00017453292519943296,-0.00034906585039886593,0.00017453292519943296
1780294753.962400675,1780294753.962202787,0.0,0.0,9.8,0.0,-0.00034906585039886593,0.0
1780294753.971466303,1780294753.971145391,0.0,-0.009800000000000001,9.8,0.0,-0.00034906585039886593,0.0
1780294753.982678890,1780294753.982433081,0.0,-0.019600000000000003,9.8,-0.00017453292519943296,-0.00034906585039886593,0.0
1780294753.992705584,1780294753.992315531,0.0,-0.009800000000000001,9.8,0.0,-0.0005235987755982988,0.0
1780294754.002370834,1780294754.002144575,-0.009800000000000001,-0.009800000000000001,9.8,-0.00017453292519943296,-0.00034906585039886593,0.00017453292519943296
1780294754.012814999,1780294754.011747837,0.0,-0.019600000000000003,9.7902,0.0,-0.0005235987755982988,0.00017453292519943296
1780294754.022419930,1780294754.022220373,0.0,-0.019600000000000003,9.7902,0.0,-0.0005235987755982988,0.00017453292519943296
1780294754.030169964,1780294754.029942751,0.0,-0.019600000000000003,9.8,0.0,-0.0005235987755982988,0.00017453292519943296
1780294754.042516232,1780294754.042184353,0.0,-0.019600000000000003,9.8,0.0,-0.00034906585039886593,0.0
1780294754.053181648,1780294754.051601171,-0.009800000000000001,-0.019600000000000003,9.7902,0.0,-0.00034906585039886593,0.00017453292519943296
1780294754.062618732,1780294754.062227726,0.0,-0.009800000000000001,9.8,0.0,-0.00034906585039886593,0.0
1780294754.070728302,1780294754.070201635,0.0,-0.009800000000000001,9.8,0.0,-0.00034906585039886593,0.00017453292519943296
1780294754.084018469,1780294754.083190918,-0.009800000000000001,-0.019600000000000003,9.8,0.0,-0.0005235987755982988,0.00017453292519943296
1780294754.091441631,1780294754.091166496,0.0,-0.019600000000000003,9.8,0.0,-0.00034906585039886593,0.00034906585039886593
1780294754.104326010,1780294754.104104042,-0.009800000000000001,-0.009800000000000001,9.7902,0.0,-0.0005235987755982988,0.0
1780294754.110911846,1780294754.110708952,0.0,-0.019600000000000003,9.8,0.0,-0.00034906585039886593,0.00017453292519943296
1780294754.123343468,1780294754.123074532,0.0,-0.009800000000000001,9.7902,0.0,-0.0005235987755982988,0.00034906585039886593
1780294754.131815195,1780294754.131595135,0.0,0.0,9.8,0.0,-0.0005235987755982988,0.00017453292519943296
1780294754.143333435,1780294754.143106699,0.0,-0.019600000000000003,9.8,0.00017453292519943296,-0.00034906585039886593,0.00017453292519943296
1780294754.151776791,1780294754.151260138,0.0,-0.019600000000000003,9.8,-0.00017453292519943296,-0.0005235987755982988,0.00017453292519943296
1780294754.162180901,1780294754.161394835,-0.009800000000000001,-0.009800000000000001,9.8,0.0,-0.0005235987755982988,0.00017453292519943296
1780294754.171400547,1780294754.171131134,0.0,-0.009800000000000001,9.8,0.0,-0.00034906585039886593,0.00017453292519943296
1780294754.182432652,1780294754.182156801,0.0,-0.009800000000000001,9.8,0.0,-0.00034906585039886593,0.00034906585039886593
1780294754.191301346,1780294754.191148520,0.0,0.0,9.8,0.0,-0.0005235987755982988,0.00017453292519943296
1780294754.204882860,1780294754.203315258,0.0,0.0,9.8,0.0,-0.00034906585039886593,0.0
1780294754.212283611,1780294754.211739302,0.0,-0.009800000000000001,9.8,-0.00017453292519943296,-0.0005235987755982988,0.00017453292519943296
1780294754.223966122,1780294754.223557234,-0.009800000000000001,-0.009800000000000001,9.8,0.0,-0.00034906585039886593,0.00017453292519943296
1780294754.231431484,1780294754.231237173,0.0,0.0,9.8,-0.00017453292519943296,-0.00034906585039886593,0.0
1780294754.241407633,1780294754.241177559,0.0,0.0,9.7902,0.0,-0.00034906585039886593,0.0
1780294754.251345634,1780294754.250170469,0.0,-0.009800000000000001,9.8,0.0,-0.0005235987755982988,0.0
1780294754.261450768,1780294754.261167288,0.0,-0.009800000000000001,9.8,0.0,-0.00034906585039886593,0.00017453292519943296
1780294754.286450863,1780294754.286264896,0.0,-0.009800000000000001,9.8,-0.00017453292519943296,-0.0005235987755982988,0.00017453292519943296
1780294754.299159765,1780294754.297961235,0.0,-0.029400000000000003,9.8,0.0,-0.00034906585039886593,0.00017453292519943296
1780294754.299217463,1780294754.298530340,-0.009800000000000001,-0.019600000000000003,9.8,-0.00017453292519943296,-0.0005235987755982988,0.00017453292519943296
1780294754.303337812,1780294754.302869081,0.0,-0.019600000000000003,9.8,0.0,-0.00034906585039886593,0.00017453292519943296
1780294754.311478376,1780294754.311241865,0.0,-0.019600000000000003,9.7902,0.0,-0.00034906585039886593,0.00017453292519943296
1780294754.324905872,1780294754.323767424,0.0,-0.009800000000000001,9.7902,-0.00017453292519943296,-0.0005235987755982988,0.00017453292519943296
1780294754.332144976,1780294754.331020594,0.0,-0.019600000000000003,9.7902,-0.00017453292519943296,-0.00034906585039886593,0.00017453292519943296
1780294754.342583656,1780294754.342406273,0.009800000000000001,-0.019600000000000003,9.8,0.0,-0.00034906585039886593,0.00017453292519943296
1780294754.351355314,1780294754.351144075,0.0,-0.009800000000000001,9.7902,0.0,-0.0005235987755982988,0.0
1780294754.362195730,1780294754.362045765,0.0,-0.019600000000000003,9.8,0.0,-0.00034906585039886593,0.00017453292519943296
1780294754.371401072,1780294754.371226072,0.0,-0.039200000000000006,9.7902,0.0,-0.0005235987755982988,0.00017453292519943296
1780294754.383252382,1780294754.382899046,0.0,-0.019600000000000003,9.7902,0.0,-0.0005235987755982988,0.0
1780294754.391216278,1780294754.391024590,0.0,-0.019600000000000003,9.8,0.0,-0.00034906585039886593,0.0
1780294754.403723478,1780294754.402924061,-0.009800000000000001,-0.009800000000000001,9.8,0.0,-0.00034906585039886593,0.00017453292519943296
1780294754.412487984,1780294754.411209822,-0.009800000000000001,-0.019600000000000003,9.8,0.0,-0.00034906585039886593,0.00017453292519943296
1780294754.423223257,1780294754.422475815,0.0,-0.019600000000000003,9.8,0.0,-0.00034906585039886593,0.00017453292519943296
1780294754.431902647,1780294754.431664944,-0.009800000000000001,-0.009800000000000001,9.8,0.0,-0.0005235987755982988,0.0
1780294754.444178820,1780294754.442692280,0.0,-0.019600000000000003,9.8,0.0,-0.0005235987755982988,0.00017453292519943296
1780294754.452135563,1780294754.451828480,0.0,-0.009800000000000001,9.8,0.0,-0.0005235987755982988,0.00017453292519943296
1780294754.462525368,1780294754.462179899,-0.009800000000000001,-0.009800000000000001,9.8,-0.00017453292519943296,-0.0005235987755982988,0.00017453292519943296
1780294754.471566916,1780294754.471216202,0.0,-0.009800000000000001,9.8,0.0,-0.0005235987755982988,0.0
1780294754.483464241,1780294754.482650995,0.0,-0.019600000000000003,9.8,0.0,-0.0005235987755982988,0.00017453292519943296
1780294754.491488457,1780294754.491036654,0.0,-0.009800000000000001,9.7902,0.0,-0.00034906585039886593,0.00017453292519943296
1780294754.503480673,1780294754.502654314,0.0,-0.009800000000000001,9.8,-0.00017453292519943296,-0.0005235987755982988,0.0
1780294754.511391401,1780294754.511145115,0.0,0.0,9.8,0.0,-0.00034906585039886593,0.00017453292519943296
1780294754.522539377,1780294754.522303581,0.0,-0.019600000000000003,9.7902,0.0,-0.0005235987755982988,0.00017453292519943296
1780294754.532097578,1780294754.531260252,0.0,-0.009800000000000001,9.8,0.0,-0.00034906585039886593,0.00034906585039886593
1780294754.543778419,1780294754.542216539,0.0,-0.019600000000000003,9.8,-0.00017453292519943296,-0.00034906585039886593,0.00017453292519943296
1780294754.552797079,1780294754.551758528,0.0,-0.019600000000000003,9.8,0.0,-0.00034906585039886593,0.00017453292519943296
1780294754.562968731,1780294754.562506676,0.0,-0.019600000000000003,9.8,0.0,-0.0005235987755982988,0.00017453292519943296
1780294754.572978735,1780294754.571309090,0.0,-0.009800000000000001,9.8,0.0,-0.00034906585039886593,0.00017453292519943296
1780294754.582456827,1780294754.582150459,0.0,-0.009800000000000001,9.8098,-0.00017453292519943296,-0.0005235987755982988,0.00017453292519943296
1780294754.592288017,1780294754.591565847,-0.009800000000000001,-0.009800000000000001,9.8,0.0,-0.00034906585039886593,0.00034906585039886593
1780294754.604045868,1780294754.603846550,0.0,-0.009800000000000001,9.7902,-0.00017453292519943296,-0.0005235987755982988,0.00017453292519943296
1780294754.612595081,1780294754.611199379,0.0,-0.009800000000000001,9.8,0.0,-0.00034906585039886593,0.00017453292519943296
1780294754.623161554,1780294754.622594357,0.0,-0.009800000000000001,9.7902,-0.00017453292519943296,-0.00034906585039886593,0.0
1780294754.631546259,1780294754.631103516,0.0,-0.009800000000000001,9.8,0.0,-0.0005235987755982988,0.0
1780294754.642827272,1780294754.642098427,0.0,-0.019600000000000003,9.7902,0.0,-0.00034906585039886593,0.00017453292519943296
1780294754.651515961,1780294754.651170254,-0.009800000000000001,-0.009800000000000001,9.8,0.0,-0.0005235987755982988,0.0
1780294754.662244797,1780294754.662056923,-0.009800000000000001,-0.009800000000000001,9.8,0.0,-0.0005235987755982988,0.0
1780294754.671316624,1780294754.671001673,0.0,-0.009800000000000001,9.7902,0.0,-0.00034906585039886593,0.0
1780294754.682554483,1780294754.682223797,0.0,-0.009800000000000001,9.7902,0.0,-0.0005235987755982988,0.0
1780294754.691766739,1780294754.691194773,0.0,-0.019600000000000003,9.7902,0.0,-0.0005235987755982988,0.00017453292519943296
1780294754.703132629,1780294754.702149630,0.0,-0.019600000000000003,9.8,0.0,-0.00034906585039886593,0.00017453292519943296
1780294754.711246490,1780294754.711044550,0.0,-0.019600000000000003,9.8,0.0,-0.00034906585039886593,0.00017453292519943296
1780294754.722483397,1780294754.722307920,0.0,-0.009800000000000001,9.8,0.0,-0.00034906585039886593,0.0
1780294754.731306076,1780294754.731136322,0.0,-0.019600000000000003,9.8,-0.00017453292519943296,-0.0005235987755982988,0.00017453292519943296
1780294754.742187262,1780294754.742058992,-0.009800000000000001,-0.009800000000000001,9.8,0.0,-0.00034906585039886593,0.00017453292519943296
1780294754.753442049,1780294754.752967119,0.0,-0.019600000000000003,9.8,0.0,-0.0005235987755982988,0.00034906585039886593
1780294754.762309551,1780294754.762161970,0.0,-0.019600000000000003,9.8,0.0,-0.00034906585039886593,0.00017453292519943296
1780294754.771198273,1780294754.771000624,0.0,-0.019600000000000003,9.8,0.0,-0.0005235987755982988,0.00017453292519943296
1780294754.782760620,1780294754.782042503,0.0,-0.009800000000000001,9.8,0.0,-0.00034906585039886593,0.00034906585039886593
1780294754.791184902,1780294754.791044474,0.0,-0.009800000000000001,9.8,0.0,-0.0005235987755982988,0.00034906585039886593
1780294754.802757740,1780294754.802365780,0.0,-0.009800000000000001,9.8,0.0,-0.00034906585039886593,0.00017453292519943296
1780294754.811962843,1780294754.811529160,0.0,-0.009800000000000001,9.8,-0.00017453292519943296,-0.0005235987755982988,0.0
1780294754.822549343,1780294754.822031021,0.0,-0.009800000000000001,9.8,-0.00017453292519943296,-0.0005235987755982988,0.00017453292519943296
1780294754.831724644,1780294754.831058979,0.0,0.0,9.7902,0.0,-0.00034906585039886593,0.00034906585039886593
1780294754.842218876,1780294754.842047691,0.0,0.0,9.8,0.0,-0.00034906585039886593,0.00017453292519943296
1780294754.853430033,1780294754.851166248,0.0,-0.009800000000000001,9.7902,0.0,-0.0005235987755982988,0.0
1780294754.864216089,1780294754.862102985,0.0,0.0,9.7902,0.0,-0.00034906585039886593,0.00017453292519943296
1780294754.871479511,1780294754.871012688,0.0,-0.019600000000000003,9.8,0.0,-0.00034906585039886593,0.0
1780294754.882991791,1780294754.882372618,0.0,-0.009800000000000001,9.8,0.0,-0.0005235987755982988,0.0
1780294754.893522739,1780294754.891458035,0.0,-0.009800000000000001,9.8,-0.00017453292519943296,-0.0005235987755982988,0.0
1780294754.904071808,1780294754.903125525,0.0,-0.009800000000000001,9.8,0.0,-0.00034906585039886593,0.0
1780294754.911354780,1780294754.911102295,-0.009800000000000001,-0.019600000000000003,9.8,-0.00017453292519943296,-0.0005235987755982988,0.0
1780294754.923919439,1780294754.922921658,0.0,-0.009800000000000001,9.7902,0.0,-0.00034906585039886593,0.00017453292519943296
1780294754.931422234,1780294754.931079388,0.0,-0.019600000000000003,9.7902,0.0,-0.00034906585039886593,0.00017453292519943296
1780294754.942234516,1780294754.942083597,0.0,-0.009800000000000001,9.8098,0.0,-0.0005235987755982988,0.0
1780294754.951671362,1780294754.951362610,-0.009800000000000001,-0.019600000000000003,9.8,0.0,-0.0005235987755982988,0.00017453292519943296
1780294754.963146925,1780294754.962168217,0.009800000000000001,-0.019600000000000003,9.8,0.0,-0.00034906585039886593,0.0
1780294754.971390486,1780294754.971123219,0.0,-0.029400000000000003,9.8,-0.00017453292519943296,-0.00034906585039886593,0.00034906585039886593
1780294754.982453585,1780294754.982273817,0.0,-0.009800000000000001,9.7902,0.0,-0.00034906585039886593,0.00017453292519943296
1780294754.991259813,1780294754.991073132,0.0,-0.019600000000000003,9.8,0.0,-0.00034906585039886593,0.00017453292519943296
1780294755.003945351,1780294755.002903700,0.0,-0.019600000000000003,9.8,0.0,-0.00034906585039886593,0.00017453292519943296
1780294755.012869120,1780294755.012257576,-0.009800000000000001,-0.019600000000000003,9.8,0.0,-0.0005235987755982988,0.00017453292519943296
1780294755.022349596,1780294755.022147179,0.0,-0.009800000000000001,9.8098,0.0,-0.0005235987755982988,0.00017453292519943296
1780294755.029706240,1780294755.029545069,0.0,-0.009800000000000001,9.7902,0.0,-0.00034906585039886593,0.0
1780294755.043244362,1780294755.043048143,-0.009800000000000001,-0.009800000000000001,9.7902,0.0,-0.00034906585039886593,0.00017453292519943296
1780294755.051367283,1780294755.051143646,0.0,0.0,9.8,0.0,-0.00034906585039886593,0.00017453292519943296
1780294755.063154697,1780294755.063009739,0.0,-0.009800000000000001,9.8,0.0,-0.00034906585039886593,0.0
1780294755.070260525,1780294755.070039272,0.0,-0.009800000000000001,9.7902,0.0,-0.00034906585039886593,0.00017453292519943296
1780294755.082582474,1780294755.082138777,0.0,-0.019600000000000003,9.8,0.0,-0.00034906585039886593,0.0
1780294755.091350794,1780294755.091158867,-0.009800000000000001,-0.009800000000000001,9.7902,0.0,-0.00034906585039886593,0.00017453292519943296
1780294755.103234529,1780294755.103066206,0.0,-0.009800000000000001,9.8,0.0,-0.0005235987755982988,0.0
1780294755.109206200,1780294755.108996153,-0.009800000000000001,-0.009800000000000001,9.7902,-0.00017453292519943296,-0.00034906585039886593,0.00017453292519943296
1780294755.123542070,1780294755.123062134,0.0,-0.009800000000000001,9.7902,0.0,-0.0005235987755982988,0.00017453292519943296
1780294755.129883766,1780294755.129659414,0.0,0.0,9.8,0.0,-0.00034906585039886593,0.0
1780294755.142248869,1780294755.142045498,-0.009800000000000001,-0.009800000000000001,9.7902,0.0,-0.0005235987755982988,0.0
1780294755.151313305,1780294755.151095629,0.0,-0.019600000000000003,9.8,0.0,-0.0005235987755982988,0.0
1780294755.162063837,1780294755.161618948,0.0,-0.019600000000000003,9.8,0.0,-0.0005235987755982988,0.0
1780294755.172520638,1780294755.171061277,0.0,-0.009800000000000001,9.7902,0.0,-0.00034906585039886593,0.00017453292519943296
1780294755.182616472,1780294755.181074142,0.0,-0.019600000000000003,9.8,0.0,-0.0005235987755982988,0.00017453292519943296
1780294755.190427542,1780294755.190240145,0.0,-0.009800000000000001,9.8,0.0,-0.0005235987755982988,0.0
1780294755.202298641,1780294755.202144861,0.0,-0.009800000000000001,9.7902,0.0,-0.0005235987755982988,0.00017453292519943296
1780294755.211389065,1780294755.211141825,0.0,-0.009800000000000001,9.8,0.0,-0.00034906585039886593,0.00017453292519943296
1780294755.223352194,1780294755.222774506,-0.009800000000000001,-0.009800000000000001,9.7902,0.0,-0.00034906585039886593,0.00017453292519943296
1780294755.231992960,1780294755.231547594,0.0,-0.009800000000000001,9.7902,0.0,-0.0005235987755982988,0.00034906585039886593
1780294755.242365837,1780294755.242122650,0.0,-0.009800000000000001,9.8,-0.00017453292519943296,-0.00034906585039886593,0.00017453292519943296
1780294755.251315355,1780294755.251070023,0.0,-0.009800000000000001,9.7902,0.0,-0.0005235987755982988,0.00017453292519943296
1780294755.262587070,1780294755.262112379,0.0,-0.019600000000000003,9.8,-0.00017453292519943296,-0.0005235987755982988,0.00017453292519943296
1780294755.271478415,1780294755.271265507,0.0,-0.019600000000000003,9.8,0.0,-0.0005235987755982988,0.00017453292519943296
1780294755.297239065,1780294755.297112703,0.0,-0.009800000000000001,9.8,0.0,-0.0005235987755982988,0.00017453292519943296
1780294755.303678274,1780294755.303307772,0.0,-0.009800000000000001,9.8,0.0,-0.0005235987755982988,0.0
1780294755.307267427,1780294755.307096004,0.0,-0.019600000000000003,9.8,0.0,-0.0005235987755982988,0.0
1780294755.312709808,1780294755.312404871,-0.009800000000000001,-0.019600000000000003,9.7902,-0.00017453292519943296,-0.0005235987755982988,0.0
1780294755.322744370,1780294755.322421551,0.0,-0.009800000000000001,9.7902,0.0,-0.00034906585039886593,0.00017453292519943296
1780294755.330893278,1780294755.330693722,0.0,-0.009800000000000001,9.8,-0.00017453292519943296,-0.00034906585039886593,0.0
1780294755.342872143,1780294755.342655897,-0.009800000000000001,-0.019600000000000003,9.8,0.0,-0.00034906585039886593,0.0
1780294755.351196527,1780294755.351045370,0.0,-0.019600000000000003,9.8,-0.00017453292519943296,-0.0005235987755982988,0.0
1780294755.363271475,1780294755.363008738,0.0,-0.019600000000000003,9.8,0.0,-0.0005235987755982988,0.0
1780294755.371277571,1780294755.371050119,0.0,-0.019600000000000003,9.8,0.0,-0.0005235987755982988,0.0
1780294755.382575750,1780294755.382285118,0.0,-0.019600000000000003,9.8,0.0,-0.00034906585039886593,0.00017453292519943296
1780294755.393223763,1780294755.391638041,0.0,-0.019600000000000003,9.8,0.0,-0.0005235987755982988,0.00017453292519943296
1780294755.406552076,1780294755.404645920,-0.009800000000000001,-0.019600000000000003,9.8,0.0,-0.0005235987755982988,0.0
1780294755.411237717,1780294755.411072254,0.0,-0.019600000000000003,9.8098,-0.00017453292519943296,-0.0005235987755982988,0.00034906585039886593
1780294755.423883915,1780294755.423123121,0.0,-0.029400000000000003,9.7902,0.0,-0.00034906585039886593,0.00034906585039886593
1780294755.432036638,1780294755.431854248,-0.009800000000000001,-0.019600000000000003,9.8,0.0,-0.00034906585039886593,0.00017453292519943296
1780294755.445373535,1780294755.443266630,0.0,-0.009800000000000001,9.7902,0.0,-0.00034906585039886593,0.00017453292519943296
1780294755.451179743,1780294755.451031208,-0.009800000000000001,-0.019600000000000003,9.7902,0.0,-0.0005235987755982988,0.00017453292519943296
1780294755.463148594,1780294755.462083340,0.0,-0.019600000000000003,9.8,0.0,-0.0005235987755982988,0.00017453292519943296
1780294755.472498655,1780294755.472176552,0.0,0.0,9.8,0.0,-0.00034906585039886593,0.00017453292519943296
1780294755.482335091,1780294755.482177973,0.0,0.0,9.7902,0.0,-0.00034906585039886593,0.00017453292519943296
1780294755.493850946,1780294755.492326975,-0.009800000000000001,-0.009800000000000001,9.8,0.0,-0.0005235987755982988,0.00017453292519943296
1780294755.502400637,1780294755.502140760,0.0,0.0,9.8,0.0,-0.0005235987755982988,0.0
1780294755.511612415,1780294755.511386871,-0.009800000000000001,-0.009800000000000001,9.8,-0.00017453292519943296,-0.0005235987755982988,0.00017453292519943296
1780294755.523743391,1780294755.523524046,0.0,0.0,9.7902,0.0,-0.0005235987755982988,0.0
1780294755.531483173,1780294755.531279802,0.0,-0.009800000000000001,9.8098,0.0,-0.00034906585039886593,0.0
1780294755.543934345,1780294755.542165279,-0.009800000000000001,-0.009800000000000001,9.8,0.0,-0.00034906585039886593,0.0
1780294755.551752567,1780294755.551052094,0.0,-0.009800000000000001,9.7902,-0.00017453292519943296,-0.0005235987755982988,0.0
1780294755.562619925,1780294755.562080622,0.0,-0.009800000000000001,9.8,0.0,-0.0005235987755982988,0.0
1780294755.571218729,1780294755.571034193,-0.009800000000000001,-0.019600000000000003,9.8,0.0,-0.00034906585039886593,0.00017453292519943296
1780294755.585948706,1780294755.582270145,0.0,-0.019600000000000003,9.8,0.0,-0.00034906585039886593,0.0
1780294755.591287613,1780294755.591074228,0.0,-0.029400000000000003,9.8098,0.0,-0.00034906585039886593,0.00017453292519943296
1780294755.602275372,1780294755.602094650,0.0,-0.019600000000000003,9.8,0.0,-0.00034906585039886593,0.0
1780294755.612364292,1780294755.611605644,0.0,-0.019600000000000003,9.7902,-0.00017453292519943296,-0.00034906585039886593,0.00017453292519943296
1780294755.623414040,1780294755.623224735,-0.009800000000000001,-0.019600000000000003,9.7902,0.0,-0.00034906585039886593,0.00017453292519943296
1780294755.633208036,1780294755.632221937,0.0,-0.009800000000000001,9.7804,0.0,-0.00034906585039886593,0.00017453292519943296
1780294755.642247438,1780294755.642058372,0.0,-0.009800000000000001,9.7902,0.0,-0.00034906585039886593,0.00034906585039886593
1780294755.653990269,1780294755.653265953,0.0,-0.009800000000000001,9.7902,-0.00017453292519943296,-0.00034906585039886593,0.00017453292519943296
1780294755.663059473,1780294755.662876844,0.0,-0.019600000000000003,9.8,0.0,-0.00034906585039886593,0.00017453292519943296
1780294755.671283245,1780294755.671046257,0.0,-0.019600000000000003,9.8,0.0,-0.0005235987755982988,0.00017453292519943296
1780294755.683721304,1780294755.682947636,-0.009800000000000001,-0.029400000000000003,9.7902,0.0,-0.0005235987755982988,0.0
1780294755.691441774,1780294755.691204548,0.0,-0.019600000000000003,9.7902,0.0,-0.00034906585039886593,0.00017453292519943296
1780294755.703044653,1780294755.702876568,0.0,-0.009800000000000001,9.7902,0.0,-0.00034906585039886593,0.00017453292519943296
1780294755.711456060,1780294755.711221933,-0.009800000000000001,-0.009800000000000001,9.8,0.0,-0.00034906585039886593,0.00034906585039886593
1780294755.723654032,1780294755.723117352,0.0,-0.009800000000000001,9.8,0.0,-0.0005235987755982988,0.00017453292519943296
1780294755.731613874,1780294755.731240749,-0.009800000000000001,-0.009800000000000001,9.8,0.0,-0.00034906585039886593,0.0
1780294755.742400169,1780294755.742216349,-0.009800000000000001,-0.019600000000000003,9.8,0.0,-0.0005235987755982988,0.00017453292519943296
1780294755.751264811,1780294755.751074553,0.0,-0.009800000000000001,9.7804,0.0,-0.00034906585039886593,0.00017453292519943296
1780294755.762279272,1780294755.762112856,0.0,-0.009800000000000001,9.7902,0.0,-0.0005235987755982988,0.0
1780294755.771300316,1780294755.771077871,0.0,-0.009800000000000001,9.7902,0.0,-0.00034906585039886593,0.0
1780294755.781305552,1780294755.781098127,0.0,-0.009800000000000001,9.8,0.0,-0.0005235987755982988,0.00017453292519943296
1780294755.791188240,1780294755.791023016,0.0,-0.009800000000000001,9.7902,0.0,-0.00034906585039886593,0.0
1780294755.802475691,1780294755.802268028,-0.009800000000000001,-0.009800000000000001,9.7902,0.0,-0.0005235987755982988,0.0
1780294755.811448574,1780294755.811113358,0.0,-0.009800000000000001,9.7902,0.0,-0.00034906585039886593,0.00017453292519943296
1780294755.823805332,1780294755.823271990,0.0,-0.009800000000000001,9.7902,-0.00017453292519943296,-0.0005235987755982988,0.00017453292519943296
1780294755.832462072,1780294755.831069231,0.0,-0.009800000000000001,9.8,0.0,-0.0005235987755982988,0.00017453292519943296
1780294755.842169046,1780294755.842049360,0.0,-0.009800000000000001,9.7902,-0.00017453292519943296,-0.0005235987755982988,0.00017453292519943296
1780294755.851973534,1780294755.851578951,0.0,-0.009800000000000001,9.8,0.0,-0.00034906585039886593,0.00034906585039886593
1780294755.865935564,1780294755.865247250,0.0,-0.019600000000000003,9.8,-0.00017453292519943296,-0.0005235987755982988,0.00017453292519943296
1780294755.872265100,1780294755.872098684,0.0,-0.019600000000000003,9.8,0.0,-0.00034906585039886593,0.00017453292519943296
1780294755.882576466,1780294755.882406950,0.0,-0.009800000000000001,9.8,0.0,-0.0005235987755982988,0.0
1780294755.891664028,1780294755.891152859,0.0,-0.019600000000000003,9.7902,0.0,-0.0005235987755982988,0.00017453292519943296
1780294755.903201818,1780294755.902234077,0.0,-0.029400000000000003,9.7902,-0.00017453292519943296,-0.00034906585039886593,0.00017453292519943296
1780294755.911807537,1780294755.911329269,0.0,-0.019600000000000003,9.8098,0.0,-0.00034906585039886593,0.00017453292519943296
1780294755.925935507,1780294755.923949718,0.0,-0.019600000000000003,9.8,0.0,-0.00034906585039886593,0.0
1780294755.933721542,1780294755.931355715,0.0,-0.019600000000000003,9.7902,0.0,-0.00034906585039886593,0.00017453292519943296
1780294755.944258213,1780294755.943584442,0.0,-0.019600000000000003,9.8,0.0,-0.0005235987755982988,0.0
1780294755.951465845,1780294755.951038599,-0.009800000000000001,-0.009800000000000001,9.8098,0.0,-0.00034906585039886593,0.0
1780294755.963811636,1780294755.962407827,-0.009800000000000001,-0.009800000000000001,9.7902,0.0,-0.00034906585039886593,0.00017453292519943296
1780294755.971982956,1780294755.971574068,-0.009800000000000001,-0.019600000000000003,9.7902,0.0,-0.00034906585039886593,0.00017453292519943296
1780294755.982869864,1780294755.982520580,0.0,-0.009800000000000001,9.8,0.0,-0.0005235987755982988,0.0
1780294755.991261959,1780294755.991084337,0.0,-0.009800000000000001,9.7902,0.0,-0.0005235987755982988,0.00017453292519943296
1780294756.002239704,1780294756.002052069,0.0,-0.009800000000000001,9.8,0.0,-0.00034906585039886593,0.00017453292519943296
1780294756.011366606,1780294756.011045456,0.0,-0.009800000000000001,9.7902,0.0,-0.0005235987755982988,0.00017453292519943296
1780294756.029575348,1780294756.024471760,0.0,-0.019600000000000003,9.8098,-0.00017453292519943296,-0.00034906585039886593,0.0
1780294756.029657602,1780294756.029034138,0.0,-0.009800000000000001,9.8,0.0,-0.00034906585039886593,0.00017453292519943296
1780294756.041864872,1780294756.041617155,-0.009800000000000001,-0.009800000000000001,9.8,0.0,-0.0005235987755982988,0.00017453292519943296
1780294756.053668499,1780294756.053438425,-0.009800000000000001,-0.009800000000000001,9.8,0.0,-0.00034906585039886593,0.00017453292519943296
1780294756.062547922,1780294756.062263727,0.0,-0.019600000000000003,9.8,0.0,-0.00034906585039886593,0.00017453292519943296
1780294756.070320845,1780294756.070084810,0.0,0.0,9.7902,0.0,-0.0005235987755982988,0.00017453292519943296
1780294756.080182314,1780294756.079990864,0.0,-0.009800000000000001,9.8,0.0,-0.00034906585039886593,0.00017453292519943296
1780294756.102496386,1780294756.091084719,0.0,-0.009800000000000001,9.8,-0.00017453292519943296,-0.00034906585039886593,0.00017453292519943296
1780294756.105344296,1780294756.105205536,0.0,-0.009800000000000001,9.7902,-0.00017453292519943296,-0.00034906585039886593,0.00017453292519943296
1780294756.114847422,1780294756.113931179,-0.009800000000000001,-0.009800000000000001,9.7902,0.0,-0.0005235987755982988,0.00034906585039886593
1780294756.123368025,1780294756.123138905,-0.009800000000000001,-0.009800000000000001,9.8,0.0,-0.00034906585039886593,0.00017453292519943296
1780294756.129210949,1780294756.128984213,0.0,-0.009800000000000001,9.8,-0.00017453292519943296,-0.0005235987755982988,0.00017453292519943296
1780294756.142483234,1780294756.142147779,0.0,0.0,9.8,-0.00017453292519943296,-0.00034906585039886593,0.00017453292519943296
1780294756.156498909,1780294756.154183388,0.0,-0.009800000000000001,9.7902,0.0,-0.0005235987755982988,0.00017453292519943296
1780294756.162295341,1780294756.162126064,0.0,-0.009800000000000001,9.7902,-0.00017453292519943296,-0.0005235987755982988,0.0
1780294756.171509027,1780294756.171232700,-0.009800000000000001,-0.009800000000000001,9.8098,-0.00017453292519943296,-0.0005235987755982988,0.0
1780294756.181298971,1780294756.181106567,-0.009800000000000001,-0.009800000000000001,9.8098,0.0,-0.00034906585039886593,0.00017453292519943296
1780294756.190223217,1780294756.189989567,-0.009800000000000001,-0.009800000000000001,9.8,-0.00017453292519943296,-0.00034906585039886593,0.00017453292519943296
1780294756.202638388,1780294756.202135801,0.0,-0.009800000000000001,9.8098,-0.00017453292519943296,-0.0005235987755982988,0.0
1780294756.211206675,1780294756.211034298,0.0,-0.009800000000000001,9.7902,-0.00034906585039886593,-0.0005235987755982988,0.00017453292519943296
1780294756.222728491,1780294756.222113609,0.0,-0.019600000000000003,9.8098,0.0,-0.0005235987755982988,0.00017453292519943296
1780294756.231763124,1780294756.231312037,-0.009800000000000001,-0.029400000000000003,9.7902,-0.00017453292519943296,-0.0005235987755982988,0.0
1780294756.242807150,1780294756.242169619,-0.009800000000000001,-0.019600000000000003,9.8,0.0,-0.00034906585039886593,0.0
1780294756.250174522,1780294756.250006914,0.0,-0.019600000000000003,9.8,-0.00017453292519943296,-0.0005235987755982988,0.00017453292519943296
1780294756.260607958,1780294756.260062695,0.0,-0.019600000000000003,9.8098,0.0,-0.0005235987755982988,0.00017453292519943296
1780294756.286299229,1780294756.286150217,0.0,-0.019600000000000003,9.8,-0.00017453292519943296,-0.0005235987755982988,0.00034906585039886593
1780294756.294987202,1780294756.294763327,0.0,-0.019600000000000003,9.8,-0.00017453292519943296,-0.0005235987755982988,0.0
1780294756.295487165,1780294756.295387030,0.0,-0.019600000000000003,9.8098,-0.00017453292519943296,-0.0005235987755982988,0.00034906585039886593
1780294756.303072214,1780294756.302497625,0.0,-0.019600000000000003,9.8098,0.0,-0.0005235987755982988,0.0005235987755982988
1780294756.313870907,1780294756.313692331,0.0,-0.019600000000000003,9.8,0.0,-0.00034906585039886593,0.00017453292519943296
1780294756.322201252,1780294756.322050810,0.0,-0.019600000000000003,9.7902,0.0,-0.00034906585039886593,0.0
1780294756.331348658,1780294756.331174850,0.0,-0.019600000000000003,9.7902,0.0,-0.00034906585039886593,0.00017453292519943296
1780294756.342331648,1780294756.342144728,0.0,-0.019600000000000003,9.8,0.0,-0.0005235987755982988,0.00017453292519943296
1780294756.353179455,1780294756.353032589,0.0,-0.019600000000000003,9.7902,0.0,-0.00034906585039886593,0.00017453292519943296
1780294756.362143755,1780294756.361998558,0.0,-0.009800000000000001,9.8,0.0,-0.00034906585039886593,0.0
1780294756.371158361,1780294756.370994806,0.0,-0.019600000000000003,9.8098,0.0,-0.00034906585039886593,0.0
1780294756.382268667,1780294756.382045746,0.0,-0.019600000000000003,9.7902,0.0,-0.00034906585039886593,0.00017453292519943296
1780294756.391401768,1780294756.391206503,-0.009800000000000001,-0.019600000000000003,9.8,0.0,-0.00034906585039886593,0.00017453292519943296
1780294756.402319908,1780294756.402120113,0.0,-0.009800000000000001,9.8,0.0,-0.00034906585039886593,0.00017453292519943296
1780294756.411264896,1780294756.411003590,0.0,-0.009800000000000001,9.8,0.0,-0.00034906585039886593,0.0
1780294756.422270298,1780294756.422035694,-0.009800000000000001,-0.009800000000000001,9.8,0.0,-0.00034906585039886593,0.00017453292519943296
1780294756.431180716,1780294756.430950165,-0.009800000000000001,0.0,9.8098,-0.00017453292519943296,-0.0005235987755982988,0.0
1780294756.442717552,1780294756.442508698,0.0,0.0,9.7902,0.0,-0.00034906585039886593,0.00017453292519943296
1780294756.451530457,1780294756.451251745,0.0,-0.009800000000000001,9.7902,0.0,-0.0005235987755982988,0.00017453292519943296
1780294756.462997198,1780294756.462218523,0.0,-0.019600000000000003,9.8,0.0,-0.00034906585039886593,0.00017453292519943296
1780294756.471724510,1780294756.471393347,0.0,-0.009800000000000001,9.7902,-0.00017453292519943296,-0.00034906585039886593,0.00017453292519943296
1780294756.482331276,1780294756.482074022,0.0,-0.009800000000000001,9.7902,-0.00017453292519943296,-0.0005235987755982988,0.00017453292519943296
1780294756.491137743,1780294756.490997076,-0.009800000000000001,-0.009800000000000001,9.8098,0.0,-0.0005235987755982988,0.00017453292519943296
1780294756.502351999,1780294756.502032995,-0.009800000000000001,-0.009800000000000001,9.7902,-0.00017453292519943296,-0.0005235987755982988,0.00017453292519943296
1780294756.511259794,1780294756.511070728,-0.009800000000000001,-0.009800000000000001,9.8,-0.00017453292519943296,-0.00034906585039886593,0.0
1780294756.522522926,1780294756.522009850,-0.009800000000000001,-0.019600000000000003,9.7902,0.0,-0.0005235987755982988,0.0
1780294756.532902956,1780294756.531057358,0.0,-0.009800000000000001,9.8,0.0,-0.00034906585039886593,0.00017453292519943296
1780294756.542268515,1780294756.542062044,0.0,-0.019600000000000003,9.7902,0.0,-0.0005235987755982988,0.00017453292519943296
1780294756.552702665,1780294756.551613808,0.0,-0.019600000000000003,9.8,0.0,-0.00034906585039886593,0.0
1780294756.562614202,1780294756.562103748,0.0,-0.019600000000000003,9.7902,-0.00017453292519943296,-0.0005235987755982988,0.00017453292519943296
1780294756.571278334,1780294756.571062088,-0.009800000000000001,-0.009800000000000001,9.8,0.0,-0.00034906585039886593,0.00017453292519943296
1780294756.583358765,1780294756.582661390,0.0,-0.019600000000000003,9.8,-0.00017453292519943296,-0.0005235987755982988,0.00017453292519943296
1780294756.591263533,1780294756.591082096,0.0,-0.019600000000000003,9.8,0.0,-0.0005235987755982988,0.0
1780294756.602575779,1780294756.602043629,0.0,-0.019600000000000003,9.8,0.0,-0.00034906585039886593,0.0
1780294756.612902164,1780294756.612363100,0.0,-0.019600000000000003,9.8,0.0,-0.0005235987755982988,0.00017453292519943296
1780294756.622434139,1780294756.622210979,0.0,-0.019600000000000003,9.8,0.0,-0.0005235987755982988,0.0
1780294756.631217241,1780294756.631044865,0.0,-0.009800000000000001,9.8,0.0,-0.00034906585039886593,0.00017453292519943296
1780294756.642230988,1780294756.642008066,0.0,-0.019600000000000003,9.8,0.0,-0.0005235987755982988,0.0
1780294756.651224136,1780294756.650997400,0.0,-0.019600000000000003,9.8,0.0,-0.00034906585039886593,0.00017453292519943296
1780294756.662281513,1780294756.662076473,0.0,-0.019600000000000003,9.8,0.0,-0.0005235987755982988,0.0
1780294756.671187401,1780294756.671014309,0.0,-0.029400000000000003,9.8,0.0,-0.0005235987755982988,0.00017453292519943296
1780294756.682295084,1780294756.682098627,0.0,-0.009800000000000001,9.7902,0.0,-0.0005235987755982988,0.0
1780294756.691364527,1780294756.691159248,0.0,-0.009800000000000001,9.7902,0.0,-0.0005235987755982988,0.00017453292519943296
1780294756.702858925,1780294756.702604771,0.0,-0.009800000000000001,9.8,0.0,-0.00034906585039886593,0.00017453292519943296
1780294756.712408781,1780294756.711323500,0.0,-0.009800000000000001,9.8,0.0,-0.0005235987755982988,0.00017453292519943296
1780294756.722457409,1780294756.722083330,0.0,-0.019600000000000003,9.7902,0.0,-0.0005235987755982988,0.00017453292519943296
1780294756.731397390,1780294756.731104374,0.0,-0.009800000000000001,9.8,0.0,-0.00034906585039886593,0.00017453292519943296
1780294756.742499590,1780294756.742244482,-0.009800000000000001,-0.019600000000000003,9.7902,0.0,-0.0005235987755982988,0.00017453292519943296
1780294756.751224995,1780294756.751011372,0.0,-0.009800000000000001,9.7902,0.0,-0.00034906585039886593,0.00017453292519943296
1780294756.762563705,1780294756.762207270,0.0,-0.009800000000000001,9.8,0.0,-0.0005235987755982988,0.00034906585039886593
1780294756.773316622,1780294756.772058249,0.0,0.0,9.8,-0.00017453292519943296,-0.0005235987755982988,0.0
1780294756.781583786,1780294756.781112909,-0.009800000000000001,-0.009800000000000001,9.8,0.0,-0.00034906585039886593,0.0
1780294756.791350842,1780294756.791101456,0.0,0.0,9.8,0.0,-0.0005235987755982988,0.0
1780294756.803195477,1780294756.803015471,0.0,-0.009800000000000001,9.7902,0.0,-0.0005235987755982988,0.0
1780294756.811491966,1780294756.811025143,0.0,-0.009800000000000001,9.7902,0.0,-0.0005235987755982988,0.00017453292519943296
1780294756.828054190,1780294756.822116137,-0.009800000000000001,-0.009800000000000001,9.8,0.0,-0.0005235987755982988,0.00017453292519943296
1780294756.831301689,1780294756.831072807,0.0,-0.009800000000000001,9.7902,-0.00017453292519943296,-0.0005235987755982988,0.00017453292519943296
1780294756.842154503,1780294756.841978788,-0.009800000000000001,-0.019600000000000003,9.7902,-0.00017453292519943296,-0.0005235987755982988,0.00017453292519943296
1780294756.851197958,1780294756.851000786,-0.009800000000000001,0.0,9.8,-0.00017453292519943296,-0.0005235987755982988,0.0
1780294756.863822937,1780294756.862565517,0.0,-0.009800000000000001,9.7902,-0.00017453292519943296,-0.0005235987755982988,0.0
1780294756.871404409,1780294756.871177435,0.0,-0.019600000000000003,9.8,-0.00017453292519943296,-0.0005235987755982988,0.00017453292519943296
1780294756.882606745,1780294756.882431984,0.0,-0.019600000000000003,9.8,-0.00017453292519943296,-0.00034906585039886593,0.0
1780294756.891192436,1780294756.891016960,-0.009800000000000001,-0.019600000000000003,9.8,-0.00017453292519943296,-0.0005235987755982988,0.0
1780294756.902271748,1780294756.902138472,0.0,-0.019600000000000003,9.8,-0.00017453292519943296,-0.0005235987755982988,0.00017453292519943296
1780294756.911284924,1780294756.911106586,0.0,-0.019600000000000003,9.7902,0.0,-0.0005235987755982988,0.00017453292519943296
1780294756.922633410,1780294756.922049284,0.0,-0.029400000000000003,9.8,-0.00017453292519943296,-0.00034906585039886593,0.00017453292519943296
1780294756.931252003,1780294756.931060553,0.0,-0.009800000000000001,9.8,-0.00017453292519943296,-0.00034906585039886593,0.00017453292519943296
1780294756.942261457,1780294756.942019463,0.0,-0.019600000000000003,9.819600000000001,0.0,-0.0005235987755982988,0.0
1780294756.951560736,1780294756.950990915,0.0,-0.019600000000000003,9.8,0.0,-0.0005235987755982988,0.00017453292519943296
1780294756.963100433,1780294756.962144613,0.0,-0.029400000000000003,9.8,0.0,-0.00034906585039886593,0.0
1780294756.973697424,1780294756.973474264,0.0,-0.019600000000000003,9.8,-0.00017453292519943296,-0.00034906585039886593,0.00017453292519943296
1780294756.982997894,1780294756.982393503,0.0,-0.019600000000000003,9.7902,0.0,-0.00034906585039886593,0.00017453292519943296
1780294756.991267204,1780294756.991060495,0.0,-0.019600000000000003,9.8,0.0,-0.00034906585039886593,0.00017453292519943296
1780294757.004288197,1780294757.003359795,0.0,-0.009800000000000001,9.8,0.0,-0.0005235987755982988,0.00017453292519943296
1780294757.011271000,1780294757.011039972,0.0,-0.009800000000000001,9.8,0.0,-0.00034906585039886593,0.00017453292519943296
1780294757.022439480,1780294757.022238731,0.0,-0.019600000000000003,9.8,0.0,-0.0005235987755982988,0.0
1780294757.029184103,1780294757.028968334,-0.009800000000000001,-0.009800000000000001,9.8,0.0,-0.00034906585039886593,0.00017453292519943296
1780294757.041413546,1780294757.041163921,0.0,-0.009800000000000001,9.8,0.0,-0.00034906585039886593,0.00017453292519943296
1780294757.051274300,1780294757.051107645,0.0,-0.009800000000000001,9.8,0.0,-0.00034906585039886593,0.00017453292519943296
1780294757.063437700,1780294757.062253714,0.0,-0.009800000000000001,9.7902,0.0,-0.00034906585039886593,0.0
1780294757.070220232,1780294757.069966555,0.0,-0.009800000000000001,9.8,0.0,-0.0005235987755982988,0.0
1780294757.082258940,1780294757.082064152,0.0,-0.009800000000000001,9.8,0.0,-0.0005235987755982988,0.0
1780294757.091249704,1780294757.091035366,-0.009800000000000001,-0.009800000000000001,9.7902,0.0,-0.00034906585039886593,0.0
1780294757.104746819,1780294757.102222919,0.0,0.0,9.8,-0.00017453292519943296,-0.00034906585039886593,0.00017453292519943296
1780294757.110746384,1780294757.110507488,0.0,-0.019600000000000003,9.7902,0.0,-0.00034906585039886593,0.00017453292519943296
1780294757.123277903,1780294757.123102188,0.0,0.0,9.8,-0.00017453292519943296,-0.00034906585039886593,0.00017453292519943296
1780294757.129257441,1780294757.129076004,-0.009800000000000001,-0.009800000000000001,9.8,0.0,-0.00034906585039886593,0.00017453292519943296
1780294757.142439604,1780294757.142052889,-0.009800000000000001,0.0,9.7902,0.0,-0.00034906585039886593,0.00017453292519943296
1780294757.150828362,1780294757.149961710,-0.009800000000000001,-0.009800000000000001,9.8,-0.00017453292519943296,-0.0005235987755982988,0.00034906585039886593
1780294757.162284613,1780294757.162074566,-0.009800000000000001,-0.009800000000000001,9.7902,-0.00017453292519943296,-0.0005235987755982988,0.00034906585039886593
1780294757.172518253,1780294757.171743393,-0.009800000000000001,-0.019600000000000003,9.8,0.0,-0.00034906585039886593,0.00017453292519943296
1780294757.181321383,1780294757.181092501,0.0,-0.009800000000000001,9.7804,0.0,-0.0005235987755982988,0.0
1780294757.190225840,1780294757.189966679,-0.009800000000000001,-0.009800000000000001,9.8,0.0,-0.0005235987755982988,0.00017453292519943296
1780294757.202797651,1780294757.202044249,-0.009800000000000001,-0.019600000000000003,9.8,-0.00017453292519943296,-0.00034906585039886593,0.00017453292519943296
1780294757.211360693,1780294757.211061239,0.0,-0.019600000000000003,9.8098,0.0,-0.0005235987755982988,0.00017453292519943296
1780294757.221738338,1780294757.221211910,0.0,-0.019600000000000003,9.8,-0.00017453292519943296,-0.00034906585039886593,0.00017453292519943296
1780294757.231361866,1780294757.231075525,-0.019600000000000003,-0.019600000000000003,9.7902,-0.00017453292519943296,-0.0005235987755982988,0.00017453292519943296
1780294757.241287947,1780294757.241016388,0.0,-0.009800000000000001,9.8,0.0,-0.0005235987755982988,0.0
1780294757.252012968,1780294757.249999762,0.0,-0.019600000000000003,9.7902,-0.00017453292519943296,-0.0005235987755982988,0.0
1780294757.262728214,1780294757.262471914,-0.009800000000000001,-0.019600000000000003,9.7902,0.0,-0.0005235987755982988,0.0
1780294757.286428213,1780294757.286151648,0.0,-0.019600000000000003,9.7902,0.0,-0.0005235987755982988,0.0
1780294757.295734406,1780294757.294872046,0.0,-0.019600000000000003,9.8,-0.00017453292519943296,-0.00034906585039886593,0.0
1780294757.296498537,1780294757.296361208,0.0,-0.019600000000000003,9.8,0.0,-0.00034906585039886593,0.0
1780294757.302539110,1780294757.302394390,0.0,-0.019600000000000003,9.8,0.0,-0.0005235987755982988,0.0
1780294757.313805580,1780294757.311528921,0.0,-0.029400000000000003,9.8,0.0,-0.0005235987755982988,0.00017453292519943296
1780294757.322858095,1780294757.322709799,0.0,-0.019600000000000003,9.8,0.0,-0.0005235987755982988,0.0
1780294757.331855059,1780294757.331680059,-0.009800000000000001,-0.019600000000000003,9.8,0.0,-0.0005235987755982988,0.0
1780294757.342850208,1780294757.342658281,0.0,-0.009800000000000001,9.8,0.0,-0.00034906585039886593,0.0
1780294757.351658583,1780294757.351076126,0.0,-0.029400000000000003,9.8,0.0,-0.00034906585039886593,0.00017453292519943296
1780294757.362768888,1780294757.362044096,0.0,-0.009800000000000001,9.7902,0.0,-0.0005235987755982988,0.00017453292519943296
1780294757.371192217,1780294757.371007681,-0.009800000000000001,-0.019600000000000003,9.7902,0.0,-0.00034906585039886593,0.00034906585039886593
1780294757.382389784,1780294757.382217169,0.0,-0.009800000000000001,9.8,0.0,-0.00034906585039886593,0.00034906585039886593
1780294757.392480373,1780294757.391100168,0.0,-0.019600000000000003,9.8,0.0,-0.00034906585039886593,0.00017453292519943296
1780294757.402568340,1780294757.402151108,0.0,-0.009800000000000001,9.8,0.0,-0.00034906585039886593,0.00017453292519943296
1780294757.413514853,1780294757.411633253,0.0,-0.009800000000000001,9.8,0.0,-0.0005235987755982988,0.0
1780294757.423004627,1780294757.422727108,0.0,-0.009800000000000001,9.8,0.0,-0.00034906585039886593,0.00017453292519943296
1780294757.430207491,1780294757.429971457,0.0,-0.009800000000000001,9.7902,0.0,-0.0005235987755982988,0.00017453292519943296
1780294757.442974329,1780294757.442214489,0.0,-0.009800000000000001,9.8,0.0,-0.0005235987755982988,0.00017453292519943296
1780294757.453662634,1780294757.452856064,-0.009800000000000001,-0.019600000000000003,9.7902,0.0,-0.00034906585039886593,0.0
1780294757.462945938,1780294757.462094545,0.0,0.0,9.7902,-0.00017453292519943296,-0.00034906585039886593,0.0
1780294757.471329689,1780294757.471044302,0.0,-0.009800000000000001,9.8,-0.00017453292519943296,-0.00034906585039886593,0.00017453292519943296
1780294757.484775543,1780294757.482887268,-0.009800000000000001,-0.009800000000000001,9.8,-0.00017453292519943296,-0.00034906585039886593,0.00017453292519943296
1780294757.491261005,1780294757.491035461,0.0,-0.019600000000000003,9.8,-0.00017453292519943296,-0.0005235987755982988,0.0
1780294757.502572536,1780294757.502186775,0.0,-0.009800000000000001,9.8,-0.00017453292519943296,-0.00034906585039886593,0.0
1780294757.521914244,1780294757.512287617,0.0,-0.009800000000000001,9.7902,-0.00017453292519943296,-0.00034906585039886593,0.00017453292519943296
1780294757.522528887,1780294757.521959305,0.0,-0.009800000000000001,9.8,-0.00017453292519943296,-0.00034906585039886593,0.0
1780294757.531306028,1780294757.531148672,0.0,-0.019600000000000003,9.8,-0.00017453292519943296,-0.00034906585039886593,0.00017453292519943296
1780294757.542695522,1780294757.542425394,0.0,-0.019600000000000003,9.7902,-0.00017453292519943296,-0.00034906585039886593,0.0
1780294757.555261374,1780294757.551273108,-0.009800000000000001,-0.029400000000000003,9.7902,-0.00017453292519943296,-0.0005235987755982988,0.00017453292519943296
1780294757.562417269,1780294757.562234163,-0.009800000000000001,-0.019600000000000003,9.8,0.0,-0.00034906585039886593,0.00017453292519943296
1780294757.571186543,1780294757.571001530,0.0,-0.019600000000000003,9.7902,-0.00017453292519943296,-0.00034906585039886593,0.00017453292519943296
1780294757.582538843,1780294757.582055807,0.0,-0.019600000000000003,9.8,0.0,-0.00034906585039886593,0.00034906585039886593
1780294757.591400623,1780294757.590984344,-0.009800000000000001,-0.009800000000000001,9.8,0.0,-0.00034906585039886593,0.00017453292519943296
1780294757.604222298,1780294757.603599548,0.0,-0.009800000000000001,9.8098,0.0,-0.0005235987755982988,0.00034906585039886593
1780294757.614687443,1780294757.614513874,0.0,-0.009800000000000001,9.8,-0.00017453292519943296,-0.0005235987755982988,0.00017453292519943296
1780294757.622385740,1780294757.622239828,0.0,-0.019600000000000003,9.8,0.0,-0.0005235987755982988,0.00017453292519943296
1780294757.631287575,1780294757.631097317,0.0,-0.009800000000000001,9.7902,0.0,-0.00034906585039886593,0.00017453292519943296
1780294757.642942429,1780294757.642484903,0.0,-0.019600000000000003,9.7902,0.0,-0.00034906585039886593,0.00017453292519943296
1780294757.655791283,1780294757.655251503,0.0,-0.019600000000000003,9.7902,0.0,-0.00034906585039886593,0.00017453292519943296
1780294757.662412643,1780294757.662017822,0.0,-0.019600000000000003,9.7902,0.0,-0.00034906585039886593,0.00017453292519943296
1780294757.671208382,1780294757.671013594,0.0,-0.009800000000000001,9.8,0.0,-0.0005235987755982988,0.00017453292519943296
1780294757.682515860,1780294757.682145119,0.0,-0.009800000000000001,9.8,0.0,-0.00034906585039886593,0.00017453292519943296
1780294757.691814423,1780294757.691623926,0.0,-0.009800000000000001,9.8098,0.0,-0.0005235987755982988,0.00017453292519943296
1780294757.710045576,1780294757.709235191,0.0,-0.009800000000000001,9.8098,0.0,-0.00034906585039886593,0.0
1780294757.712263584,1780294757.711150408,0.0,-0.019600000000000003,9.8,0.0,-0.00034906585039886593,0.0
1780294757.731280088,1780294757.731050968,0.0,-0.009800000000000001,9.7902,0.0,-0.00034906585039886593,0.0
1780294757.742210865,1780294757.742025614,0.0,0.0,9.8,0.0,-0.00034906585039886593,0.0
1780294757.751759529,1780294757.751178026,-0.009800000000000001,0.0,9.8,0.0,-0.00034906585039886593,0.0
1780294757.762549639,1780294757.762409687,-0.009800000000000001,-0.009800000000000001,9.8,0.0,-0.00034906585039886593,0.0
1780294757.771437407,1780294757.771061659,0.0,-0.009800000000000001,9.8,0.0,-0.00034906585039886593,0.00017453292519943296
1780294757.782805681,1780294757.782564640,0.0,-0.009800000000000001,9.8,0.0,-0.00034906585039886593,0.0
1780294757.791910648,1780294757.791090965,0.0,-0.009800000000000001,9.7902,-0.00017453292519943296,-0.00034906585039886593,0.0
1780294757.803397894,1780294757.803287506,-0.009800000000000001,-0.009800000000000001,9.8,0.0,-0.00034906585039886593,0.0
1780294757.811464071,1780294757.811215401,0.0,-0.019600000000000003,9.7902,0.0,-0.00034906585039886593,0.00017453292519943296
1780294757.822603464,1780294757.821955204,0.0,-0.009800000000000001,9.8,-0.00017453292519943296,-0.0005235987755982988,0.00017453292519943296
1780294757.832672119,1780294757.830986023,0.0,0.0,9.8,-0.00017453292519943296,-0.00034906585039886593,0.00017453292519943296
1780294757.842636108,1780294757.842144012,-0.009800000000000001,-0.019600000000000003,9.7902,-0.00017453292519943296,-0.0005235987755982988,0.0
1780294757.851598740,1780294757.851355791,0.0,-0.009800000000000001,9.7902,-0.00017453292519943296,-0.00034906585039886593,0.00034906585039886593
1780294757.862569094,1780294757.862037420,0.0,-0.009800000000000001,9.7902,-0.00017453292519943296,-0.00034906585039886593,0.0
1780294757.869899750,1780294757.869455338,0.0,-0.009800000000000001,9.8,-0.00017453292519943296,-0.0005235987755982988,0.00017453292519943296
1780294757.884141207,1780294757.882424593,0.0,-0.009800000000000001,9.7902,0.0,-0.00034906585039886593,0.00017453292519943296
1780294757.891121149,1780294757.890965223,0.0,-0.019600000000000003,9.7902,-0.00017453292519943296,-0.0005235987755982988,0.00017453292519943296
1780294757.903409481,1780294757.903090954,0.0,-0.019600000000000003,9.7902,-0.00017453292519943296,-0.00034906585039886593,0.0
1780294757.911168337,1780294757.910993099,0.0,-0.019600000000000003,9.8098,0.0,-0.0005235987755982988,0.0
1780294757.923001766,1780294757.922864199,0.0,-0.019600000000000003,9.8,-0.00017453292519943296,-0.0005235987755982988,0.00017453292519943296
1780294757.931210279,1780294757.930997372,0.0,-0.019600000000000003,9.8,0.0,-0.0005235987755982988,0.00017453292519943296
1780294757.946932316,1780294757.945370436,0.0,-0.019600000000000003,9.7902,-0.00017453292519943296,-0.0005235987755982988,0.0
1780294757.951690674,1780294757.951459169,-0.009800000000000001,-0.019600000000000003,9.8,0.0,-0.00034906585039886593,0.00017453292519943296
1780294757.962440729,1780294757.962007761,0.0,-0.019600000000000003,9.7902,0.0,-0.0005235987755982988,0.00017453292519943296
1780294757.971795559,1780294757.971185446,0.0,-0.019600000000000003,9.8,0.0,-0.0005235987755982988,0.00017453292519943296
1780294757.984985113,1780294757.982966423,0.0,-0.019600000000000003,9.8,0.0,-0.00034906585039886593,0.00017453292519943296
1780294757.991213560,1780294757.991014242,0.0,-0.029400000000000003,9.8,0.0,-0.0005235987755982988,0.00017453292519943296
1780294758.004503965,1780294758.004195929,0.0,-0.019600000000000003,9.8,0.0,-0.00034906585039886593,0.00017453292519943296
1780294758.012841702,1780294758.011695862,0.0,-0.009800000000000001,9.8,0.0,-0.0005235987755982988,0.00017453292519943296
1780294758.022750139,1780294758.022041082,0.0,-0.019600000000000003,9.8098,0.0,-0.00034906585039886593,0.00017453292519943296
1780294758.030620098,1780294758.029563665,0.0,-0.019600000000000003,9.8,0.0,-0.0005235987755982988,0.00034906585039886593
1780294758.043432713,1780294758.041636705,-0.009800000000000001,-0.009800000000000001,9.8098,0.0,-0.00034906585039886593,0.00017453292519943296
1780294758.050328493,1780294758.050042391,-0.009800000000000001,-0.009800000000000001,9.7902,0.0,-0.0005235987755982988,0.00017453292519943296
1780294758.065894842,1780294758.062192440,0.0,-0.019600000000000003,9.7902,0.0,-0.00034906585039886593,0.00017453292519943296
1780294758.073859692,1780294758.070940495,-0.009800000000000001,-0.009800000000000001,9.7902,0.0,-0.00034906585039886593,0.00017453292519943296
1780294758.080217361,1780294758.080054998,0.0,-0.009800000000000001,9.7902,0.0,-0.00034906585039886593,0.0
1780294758.091449738,1780294758.091181755,0.0,-0.019600000000000003,9.8,0.0,-0.00034906585039886593,0.00017453292519943296
1780294758.102015972,1780294758.101462364,0.0,0.0,9.7902,0.0,-0.0005235987755982988,0.0
1780294758.110249043,1780294758.109785080,-0.009800000000000001,-0.019600000000000003,9.8,0.0,-0.0005235987755982988,0.0
1780294758.120677471,1780294758.119990110,0.0,-0.009800000000000001,9.8,0.0,-0.00034906585039886593,0.0
1780294758.129513741,1780294758.128912687,0.0,-0.009800000000000001,9.7902,0.0,-0.0005235987755982988,0.00017453292519943296
1780294758.142169237,1780294758.141975403,0.0,-0.009800000000000001,9.8,0.0,-0.00034906585039886593,0.00017453292519943296
1780294758.151149273,1780294758.150975466,0.0,-0.009800000000000001,9.7902,0.0,-0.00034906585039886593,0.00017453292519943296
1780294758.161436319,1780294758.161026239,0.0,-0.009800000000000001,9.8,0.0,-0.00034906585039886593,0.00017453292519943296
1780294758.171256542,1780294758.171093464,0.0,-0.009800000000000001,9.7902,-0.00017453292519943296,-0.0005235987755982988,0.0
1780294758.181564331,1780294758.181288958,0.0,-0.009800000000000001,9.7902,0.0,-0.0005235987755982988,0.00017453292519943296
1780294758.192036629,1780294758.191058159,0.0,-0.009800000000000001,9.8,-0.00017453292519943296,-0.00034906585039886593,0.00017453292519943296
1780294758.202167988,1780294758.201998949,0.0,-0.019600000000000003,9.7902,0.0,-0.0005235987755982988,0.0
1780294758.212415695,1780294758.210971117,-0.009800000000000001,-0.009800000000000001,9.8,0.0,-0.0005235987755982988,0.0
1780294758.228938341,1780294758.221996069,0.0,-0.019600000000000003,9.8,0.0,-0.0005235987755982988,0.00017453292519943296
1780294758.231168985,1780294758.230997324,0.0,-0.029400000000000003,9.7902,-0.00017453292519943296,-0.00034906585039886593,0.0
1780294758.243234158,1780294758.241152287,0.0,-0.019600000000000003,9.8,0.0,-0.00034906585039886593,0.00017453292519943296
1780294758.250275135,1780294758.250014305,0.0,-0.019600000000000003,9.8,0.0,-0.0005235987755982988,0.00017453292519943296
1780294758.262782574,1780294758.262643099,0.0,-0.009800000000000001,9.7902,0.0,-0.0005235987755982988,0.00017453292519943296
1780294758.286532164,1780294758.286298752,0.0,-0.009800000000000001,9.8,0.0,-0.00034906585039886593,0.00017453292519943296
1780294758.295572519,1780294758.294776917,-0.009800000000000001,-0.009800000000000001,9.8,0.0,-0.00034906585039886593,0.00017453292519943296
1780294758.296334505,1780294758.295572281,-0.009800000000000001,-0.019600000000000003,9.8,0.0,-0.0005235987755982988,0.00017453292519943296
1780294758.302704573,1780294758.302512646,0.0,-0.009800000000000001,9.8,0.0,-0.00034906585039886593,0.00017453292519943296
1780294758.315424442,1780294758.314914227,0.0,-0.009800000000000001,9.8,0.0,-0.00034906585039886593,0.00017453292519943296
1780294758.322649240,1780294758.321965456,0.0,-0.009800000000000001,9.8,0.0,-0.00034906585039886593,0.0
1780294758.331219912,1780294758.330952406,0.0,-0.019600000000000003,9.8,0.0,-0.0005235987755982988,0.00017453292519943296
1780294758.342381001,1780294758.342226982,0.0,-0.009800000000000001,9.8,0.0,-0.0005235987755982988,0.0
1780294758.351785660,1780294758.351436853,0.0,-0.009800000000000001,9.8098,0.0,-0.0005235987755982988,0.00017453292519943296
1780294758.362733841,1780294758.361976147,0.0,-0.009800000000000001,9.8,0.0,-0.0005235987755982988,0.00017453292519943296
1780294758.371443748,1780294758.371239424,0.0,-0.019600000000000003,9.8,-0.00017453292519943296,-0.00034906585039886593,0.0
1780294758.385312557,1780294758.383650780,0.0,-0.009800000000000001,9.8098,0.0,-0.00034906585039886593,0.0
1780294758.391239166,1780294758.390993595,0.0,-0.009800000000000001,9.8,0.0,-0.0005235987755982988,0.0
1780294758.404019833,1780294758.402108908,0.0,-0.019600000000000003,9.8,-0.00017453292519943296,-0.00034906585039886593,0.00017453292519943296
1780294758.411315680,1780294758.411057472,0.0,-0.019600000000000003,9.8,0.0,-0.0005235987755982988,0.00017453292519943296
1780294758.422991276,1780294758.422105074,0.0,-0.019600000000000003,9.8,0.0,-0.0005235987755982988,0.0
1780294758.430071354,1780294758.429916382,0.0,-0.019600000000000003,9.8,0.0,-0.00034906585039886593,0.00034906585039886593
1780294758.442453623,1780294758.442183018,0.0,-0.009800000000000001,9.8,-0.00017453292519943296,-0.00034906585039886593,0.00017453292519943296
1780294758.453861713,1780294758.451750517,-0.009800000000000001,-0.009800000000000001,9.8,-0.00017453292519943296,-0.00034906585039886593,0.00017453292519943296
1780294758.463227272,1780294758.462111473,0.0,-0.009800000000000001,9.7902,0.0,-0.0005235987755982988,0.00017453292519943296
1780294758.471801281,1780294758.471498966,0.0,-0.009800000000000001,9.8,-0.00017453292519943296,-0.0005235987755982988,0.00017453292519943296
1780294758.482265949,1780294758.482031345,0.0,-0.009800000000000001,9.7902,-0.00017453292519943296,-0.00034906585039886593,0.00017453292519943296
1780294758.491186142,1780294758.490953684,0.0,0.0,9.7902,0.0,-0.0005235987755982988,0.00017453292519943296
1780294758.502222300,1780294758.502077818,-0.009800000000000001,-0.009800000000000001,9.8,0.0,-0.00034906585039886593,0.00017453292519943296
1780294758.511158466,1780294758.510961771,0.0,-0.019600000000000003,9.8,-0.00017453292519943296,-0.0005235987755982988,0.00017453292519943296
1780294758.522280216,1780294758.522087812,0.0,-0.009800000000000001,9.7902,-0.00017453292519943296,-0.0005235987755982988,0.00017453292519943296
1780294758.531273842,1780294758.531056166,0.0,-0.009800000000000001,9.8,0.0,-0.0005235987755982988,0.0
1780294758.543003321,1780294758.542417526,-0.009800000000000001,-0.009800000000000001,9.7902,-0.00017453292519943296,-0.0005235987755982988,0.0
1780294758.551450253,1780294758.551083088,0.0,-0.009800000000000001,9.8098,0.0,-0.00034906585039886593,0.00017453292519943296
1780294758.562562943,1780294758.562258959,0.0,-0.009800000000000001,9.8,0.0,-0.00034906585039886593,0.0
1780294758.570252180,1780294758.569945097,0.0,-0.019600000000000003,9.8,0.0,-0.0005235987755982988,0.00017453292519943296
1780294758.582379818,1780294758.582155943,0.0,-0.009800000000000001,9.7902,0.0,-0.00034906585039886593,0.0
1780294758.590099096,1780294758.589958191,0.0,-0.009800000000000001,9.8,0.0,-0.0005235987755982988,0.00017453292519943296
1780294758.602757454,1780294758.602486610,0.0,-0.019600000000000003,9.8,0.0,-0.00034906585039886593,0.00017453292519943296
1780294758.611226082,1780294758.610998869,-0.009800000000000001,-0.019600000000000003,9.8098,0.0,-0.0005235987755982988,0.00017453292519943296
1780294758.622242212,1780294758.622057199,0.0,-0.019600000000000003,9.8098,0.0,-0.00034906585039886593,0.00017453292519943296
1780294758.631111622,1780294758.630946159,0.0,-0.009800000000000001,9.8,0.0,-0.00034906585039886593,0.00017453292519943296
1780294758.643066645,1780294758.642860651,0.0,-0.009800000000000001,9.8,0.0,-0.00034906585039886593,0.0
1780294758.652641058,1780294758.651632547,0.0,-0.009800000000000001,9.7902,0.0,-0.0005235987755982988,0.00017453292519943296
1780294758.662370205,1780294758.662046909,-0.009800000000000001,-0.009800000000000001,9.8,0.0,-0.0005235987755982988,0.00017453292519943296
1780294758.670514822,1780294758.669949770,-0.009800000000000001,-0.009800000000000001,9.7902,0.0,-0.00034906585039886593,0.00017453292519943296
1780294758.682779074,1780294758.682432175,0.0,-0.009800000000000001,9.7902,0.0,-0.00034906585039886593,0.00017453292519943296
1780294758.691294909,1780294758.691008568,0.0,-0.009800000000000001,9.8098,0.0,-0.0005235987755982988,0.0
1780294758.702119827,1780294758.701989412,0.0,-0.009800000000000001,9.8098,0.0,-0.0005235987755982988,0.00017453292519943296
1780294758.711161375,1780294758.710982561,0.0,-0.009800000000000001,9.8,0.0,-0.0005235987755982988,0.00017453292519943296
1780294758.722408533,1780294758.721945524,0.0,-0.009800000000000001,9.8,0.0,-0.0005235987755982988,0.00017453292519943296
1780294758.731357098,1780294758.731034517,0.0,-0.019600000000000003,9.8,0.0,-0.00034906585039886593,0.00017453292519943296
1780294758.754722834,1780294758.750538349,0.0,-0.009800000000000001,9.7804,0.0,-0.0005235987755982988,0.00017453292519943296
1780294758.762685299,1780294758.762012482,-0.009800000000000001,-0.009800000000000001,9.7902,0.0,-0.00034906585039886593,0.0
1780294758.771266937,1780294758.771008968,0.0,-0.009800000000000001,9.8,0.0,-0.0005235987755982988,0.0
1780294758.782227993,1780294758.782001495,-0.009800000000000001,-0.019600000000000003,9.8,0.0,-0.00034906585039886593,0.0
1780294758.791221857,1780294758.791062832,0.0,-0.009800000000000001,9.8098,-0.00017453292519943296,-0.0005235987755982988,0.00017453292519943296
1780294758.802201271,1780294758.802017212,0.0,-0.019600000000000003,9.8,0.0,-0.00034906585039886593,0.0
1780294758.811186790,1780294758.810957670,-0.009800000000000001,-0.019600000000000003,9.8098,0.0,-0.00034906585039886593,0.00017453292519943296
1780294758.823578119,1780294758.822477102,0.0,-0.029400000000000003,9.7902,0.0,-0.0005235987755982988,0.0
1780294758.831104279,1780294758.830944777,0.0,-0.009800000000000001,9.8,0.0,-0.0005235987755982988,0.0
1780294758.843175888,1780294758.842228651,0.0,-0.009800000000000001,9.8,0.0,-0.00034906585039886593,0.0
1780294758.850985765,1780294758.850399256,0.0,-0.019600000000000003,9.7902,0.0,-0.00034906585039886593,0.0
1780294758.863368988,1780294758.861958742,-0.009800000000000001,-0.019600000000000003,9.8,0.0,-0.0005235987755982988,0.00017453292519943296
1780294758.873451233,1780294758.870645285,0.0,-0.019600000000000003,9.8,0.0,-0.0005235987755982988,0.0
1780294758.882537365,1780294758.882231474,0.0,-0.009800000000000001,9.7902,0.0,-0.0005235987755982988,0.0
1780294758.890204430,1780294758.890007973,-0.009800000000000001,-0.009800000000000001,9.8,0.0,-0.0005235987755982988,0.00017453292519943296
1780294758.903416634,1780294758.903114319,-0.009800000000000001,-0.019600000000000003,9.8098,0.0,-0.00034906585039886593,0.00017453292519943296
1780294758.910117626,1780294758.909918070,0.0,-0.019600000000000003,9.7902,0.0,-0.0005235987755982988,0.00017453292519943296
1780294758.923907280,1780294758.923372984,0.0,-0.009800000000000001,9.8,0.0,-0.0005235987755982988,0.00017453292519943296
1780294758.931456804,1780294758.931274652,0.0,-0.019600000000000003,9.8,0.0,-0.00034906585039886593,0.0
1780294758.942166805,1780294758.941950321,0.0,-0.009800000000000001,9.8,0.0,-0.0005235987755982988,0.00017453292519943296
1780294758.951317787,1780294758.950273275,-0.009800000000000001,-0.009800000000000001,9.8,0.0,-0.0005235987755982988,0.0
1780294758.964858055,1780294758.964234114,-0.009800000000000001,-0.009800000000000001,9.8,0.0,-0.0005235987755982988,0.0
1780294758.970172644,1780294758.969932318,-0.009800000000000001,-0.019600000000000003,9.8,0.0,-0.0005235987755982988,0.00017453292519943296
1780294758.985659599,1780294758.982536077,0.0,-0.009800000000000001,9.7902,0.0,-0.0005235987755982988,0.0
1780294758.990125656,1780294758.989961147,0.0,-0.029400000000000003,9.7902,0.0,-0.0005235987755982988,0.00017453292519943296
1780294759.002684832,1780294759.002081156,0.0,-0.029400000000000003,9.7902,0.0,-0.0005235987755982988,0.0
1780294759.011136055,1780294759.010372639,0.0,-0.019600000000000003,9.8,0.00017453292519943296,-0.0005235987755982988,0.00017453292519943296
1780294759.022505045,1780294759.022119284,0.0,-0.029400000000000003,9.8,0.0,-0.0005235987755982988,0.00017453292519943296
1780294759.031754017,1780294759.031169415,-0.009800000000000001,-0.019600000000000003,9.7902,0.0,-0.0005235987755982988,0.00017453292519943296
1780294759.041173935,1780294759.040968418,0.0,-0.019600000000000003,9.8,0.0,-0.0005235987755982988,0.0
1780294759.051578522,1780294759.049936533,0.0,-0.019600000000000003,9.8,0.0,-0.0005235987755982988,0.0
1780294759.063051939,1780294759.062021017,0.0,-0.009800000000000001,9.7902,0.0,-0.0005235987755982988,0.0
1780294759.070120335,1780294759.069940090,0.0,-0.009800000000000001,9.8,0.0,-0.00034906585039886593,0.0
1780294759.081399679,1780294759.081120968,0.0,-0.009800000000000001,9.8,0.0,-0.0005235987755982988,0.0
1780294759.091060400,1780294759.090910196,0.0,0.0,9.8,0.0,-0.0005235987755982988,0.0
1780294759.102620363,1780294759.102244854,0.0,0.0,9.8,-0.00017453292519943296,-0.0005235987755982988,0.0
1780294759.109480858,1780294759.109192610,0.0,0.0,9.8,0.0,-0.00034906585039886593,0.0
1780294759.123160124,1780294759.122993708,0.0,0.0,9.8,-0.00017453292519943296,-0.00034906585039886593,0.0
1780294759.129656792,1780294759.129406214,0.009800000000000001,0.0,9.8,-0.00034906585039886593,-0.0005235987755982988,0.0
1780294759.141455650,1780294759.141244173,0.0,0.0,9.7902,-0.0005235987755982988,-0.00034906585039886593,0.0
1780294759.154471397,1780294759.154295206,0.0,0.0,9.7902,-0.0005235987755982988,-0.00034906585039886593,0.00017453292519943296
1780294759.162167549,1780294759.162042856,0.0,0.009800000000000001,9.8,-0.0005235987755982988,-0.00034906585039886593,0.0005235987755982988
1780294759.171743155,1780294759.171314478,0.0,0.009800000000000001,9.8,-0.00034906585039886593,-0.00017453292519943296,0.00034906585039886593
1780294759.183704615,1780294759.183546066,0.019600000000000003,0.009800000000000001,9.7902,-0.0005235987755982988,-0.00017453292519943296,0.0
1780294759.190558434,1780294759.189969063,0.009800000000000001,0.0,9.8,-0.0005235987755982988,-0.00017453292519943296,-0.00034906585039886593
1780294759.203477621,1780294759.202524185,0.009800000000000001,-0.009800000000000001,9.8,-0.0006981317007977319,-0.00034906585039886593,0.0
1780294759.213025331,1780294759.211199999,0.0,-0.009800000000000001,9.8,-0.0006981317007977319,-0.00017453292519943296,0.00034906585039886593
1780294759.224494219,1780294759.224345207,0.009800000000000001,-0.019600000000000003,9.8,-0.0008726646259971648,-0.0,0.0005235987755982988
1780294759.231983662,1780294759.231657982,0.0,-0.029400000000000003,9.8,-0.0008726646259971648,-0.00017453292519943296,0.0005235987755982988
1780294759.241601229,1780294759.240996599,0.0,-0.029400000000000003,9.8,-0.0008726646259971648,-0.00034906585039886593,0.00034906585039886593
1780294759.255828142,1780294759.250075579,0.0,-0.039200000000000006,9.7902,-0.00034906585039886593,-0.00017453292519943296,0.0
1780294759.262236834,1780294759.262058020,0.0,-0.058800000000000005,9.8,-0.00017453292519943296,-0.00017453292519943296,0.0
1780294759.286381483,1780294759.286136150,-0.019600000000000003,-0.06860000000000001,9.7902,-0.0005235987755982988,-0.00034906585039886593,0.00017453292519943296
1780294759.294810057,1780294759.294681787,-0.029400000000000003,-0.06860000000000001,9.8,-0.00017453292519943296,-0.00034906585039886593,0.0005235987755982988
1780294759.295486927,1780294759.295323610,-0.029400000000000003,-0.058800000000000005,9.8,-0.00034906585039886593,-0.00034906585039886593,0.0006981317007977319
1780294759.303399801,1780294759.302619934,-0.019600000000000003,-0.058800000000000005,9.8,-0.00017453292519943296,-0.00017453292519943296,0.0006981317007977319
1780294759.311198950,1780294759.311025858,-0.019600000000000003,-0.049,9.8,0.0,-0.00034906585039886593,0.0005235987755982988
1780294759.323943377,1780294759.322330713,-0.019600000000000003,-0.039200000000000006,9.7902,0.00017453292519943296,-0.0005235987755982988,0.00017453292519943296
1780294759.333034754,1780294759.330933571,-0.029400000000000003,-0.039200000000000006,9.7902,0.00034906585039886593,-0.0005235987755982988,0.0
1780294759.346410036,1780294759.345552921,-0.039200000000000006,-0.029400000000000003,9.7902,0.0006981317007977319,-0.0005235987755982988,0.0
1780294759.354976654,1780294759.353582382,-0.039200000000000006,-0.029400000000000003,9.8,0.00034906585039886593,-0.0006981317007977319,0.0
1780294759.362304449,1780294759.362174749,-0.029400000000000003,-0.009800000000000001,9.7902,0.0005235987755982988,-0.0005235987755982988,0.0
1780294759.370164156,1780294759.369939804,-0.039200000000000006,-0.009800000000000001,9.7902,0.00017453292519943296,-0.0006981317007977319,0.0
1780294759.382630825,1780294759.382012844,-0.019600000000000003,0.0,9.7902,0.00034906585039886593,-0.0006981317007977319,0.0
1780294759.390133619,1780294759.389965296,-0.029400000000000003,0.0,9.7902,0.00034906585039886593,-0.0006981317007977319,0.0
1780294759.402410269,1780294759.402086020,-0.029400000000000003,0.0,9.8,0.00034906585039886593,-0.0006981317007977319,-0.00017453292519943296
1780294759.410971403,1780294759.410346985,-0.029400000000000003,0.0,9.8,0.00034906585039886593,-0.0006981317007977319,-0.00017453292519943296
1780294759.422093153,1780294759.421956062,-0.009800000000000001,0.0,9.8,0.00034906585039886593,-0.0006981317007977319,0.0
1780294759.431430101,1780294759.431285381,0.0,0.0,9.7902,0.00017453292519943296,-0.0006981317007977319,0.00017453292519943296
1780294759.442704916,1780294759.441970587,0.0,0.0,9.8,0.00017453292519943296,-0.0006981317007977319,0.00017453292519943296
1780294759.452801228,1780294759.449955702,0.0,0.009800000000000001,9.8,0.0,-0.0006981317007977319,0.00017453292519943296
1780294759.463870049,1780294759.462121487,0.009800000000000001,0.0,9.8,0.0,-0.0006981317007977319,0.00034906585039886593
1780294759.472838879,1780294759.470353365,0.019600000000000003,0.0,9.8,0.0,-0.0006981317007977319,0.0005235987755982988
1780294759.483115911,1780294759.482700586,0.019600000000000003,0.0,9.8,0.0,-0.0005235987755982988,0.00017453292519943296
1780294759.493957043,1780294759.493030787,0.009800000000000001,0.0,9.8,-0.00017453292519943296,-0.0005235987755982988,0.00034906585039886593
1780294759.502729893,1780294759.502201557,0.019600000000000003,0.0,9.8,-0.00034906585039886593,-0.0005235987755982988,0.00017453292519943296
1780294759.511225224,1780294759.510959864,0.019600000000000003,0.009800000000000001,9.7902,-0.00034906585039886593,-0.00034906585039886593,0.00034906585039886593
1780294759.522469282,1780294759.521987200,0.009800000000000001,0.0,9.7902,-0.0005235987755982988,-0.00034906585039886593,0.00034906585039886593
1780294759.531270504,1780294759.531016827,0.009800000000000001,0.0,9.7902,-0.0006981317007977319,-0.00034906585039886593,0.00034906585039886593
1780294759.542315483,1780294759.542016029,0.0,0.0,9.7902,-0.0006981317007977319,-0.00034906585039886593,0.00034906585039886593
1780294759.557230234,1780294759.556548357,0.009800000000000001,0.0,9.7902,-0.0006981317007977319,-0.00017453292519943296,0.00017453292519943296
1780294759.562161922,1780294759.561906576,0.0,-0.019600000000000003,9.8,-0.0006981317007977319,-0.00034906585039886593,0.0
1780294759.570378780,1780294759.570070744,0.0,-0.029400000000000003,9.8098,-0.0006981317007977319,-0.00034906585039886593,0.0
1780294759.582626820,1780294759.582376957,0.0,-0.029400000000000003,9.8098,-0.0006981317007977319,-0.00034906585039886593,0.0
1780294759.603150368,1780294759.600536585,0.0,-0.029400000000000003,9.8,-0.0005235987755982988,-0.00034906585039886593,0.0
1780294759.607421875,1780294759.607266903,0.0,-0.039200000000000006,9.8,-0.0005235987755982988,-0.0005235987755982988,0.00017453292519943296
1780294759.610156536,1780294759.609913588,0.0,-0.039200000000000006,9.8,-0.00034906585039886593,-0.00034906585039886593,0.00034906585039886593
1780294759.624774218,1780294759.622242451,0.0,-0.039200000000000006,9.8,-0.00017453292519943296,-0.00034906585039886593,0.00017453292519943296
1780294759.636034727,1780294759.634194851,0.0,-0.029400000000000003,9.7902,0.0,-0.00034906585039886593,0.00017453292519943296
1780294759.648109198,1780294759.643975496,0.0,-0.029400000000000003,9.7902,0.0,-0.00034906585039886593,0.00017453292519943296
1780294759.653625250,1780294759.650389910,0.0,-0.029400000000000003,9.7902,0.0,-0.00034906585039886593,0.00034906585039886593
1780294759.664408922,1780294759.662116289,0.0,-0.029400000000000003,9.8,0.0,-0.00017453292519943296,0.00034906585039886593
1780294759.670634031,1780294759.669876337,-0.009800000000000001,-0.039200000000000006,9.8,0.0,-0.00017453292519943296,0.00034906585039886593
1780294759.686535597,1780294759.682715416,0.0,-0.039200000000000006,9.8098,0.0,-0.00017453292519943296,0.0005235987755982988
1780294759.698701859,1780294759.689944267,0.0,-0.039200000000000006,9.7902,0.0,-0.00017453292519943296,0.00034906585039886593
1780294759.711825371,1780294759.702155352,-0.019600000000000003,-0.039200000000000006,9.7902,0.0,-0.00017453292519943296,0.00034906585039886593
1780294759.711884499,1780294759.709900856,-0.029400000000000003,-0.049,9.7902,0.00017453292519943296,-0.00034906585039886593,0.00017453292519943296
1780294759.723205805,1780294759.722751856,-0.029400000000000003,-0.049,9.7902,0.00034906585039886593,-0.00034906585039886593,0.0
1780294759.731099129,1780294759.730908632,-0.029400000000000003,-0.049,9.8,0.0005235987755982988,-0.00017453292519943296,0.00017453292519943296
1780294759.742186785,1780294759.741926193,-0.029400000000000003,-0.039200000000000006,9.7902,0.00034906585039886593,-0.00034906585039886593,0.00034906585039886593
1780294759.750899792,1780294759.749933720,-0.019600000000000003,-0.039200000000000006,9.8,0.0006981317007977319,-0.0005235987755982988,0.00034906585039886593
1780294759.763448954,1780294759.762778044,-0.009800000000000001,-0.019600000000000003,9.8098,0.0005235987755982988,-0.0005235987755982988,0.00034906585039886593
1780294759.771922350,1780294759.770009041,-0.009800000000000001,0.0,9.8,0.0006981317007977319,-0.0005235987755982988,0.00017453292519943296
1780294759.782664537,1780294759.782400131,-0.009800000000000001,0.0,9.7902,0.0006981317007977319,-0.0005235987755982988,0.00017453292519943296
1780294759.790374994,1780294759.789891720,0.0,0.019600000000000003,9.7902,0.0005235987755982988,-0.0005235987755982988,0.0
1780294759.802255869,1780294759.802002430,0.0,0.039200000000000006,9.7902,0.00034906585039886593,-0.0005235987755982988,0.0
1780294759.811364889,1780294759.810925484,0.0,0.029400000000000003,9.8098,0.00017453292519943296,-0.00034906585039886593,0.0
1780294759.823631525,1780294759.822010279,0.0,0.029400000000000003,9.8,0.0,-0.00034906585039886593,0.0
1780294759.831683874,1780294759.831020355,0.0,0.029400000000000003,9.8,0.0,-0.00034906585039886593,0.0
1780294759.842060089,1780294759.841909170,0.0,0.019600000000000003,9.7902,-0.00034906585039886593,-0.00034906585039886593,0.0
1780294759.851504087,1780294759.849888086,0.0,0.019600000000000003,9.8,-0.0005235987755982988,-0.00034906585039886593,0.0
1780294759.863357544,1780294759.861915350,0.0,0.009800000000000001,9.7804,-0.00034906585039886593,-0.00034906585039886593,0.0
1780294759.871151447,1780294759.870918512,-0.009800000000000001,0.0,9.7804,-0.0006981317007977319,-0.00034906585039886593,0.0
1780294759.883345842,1780294759.882033110,-0.009800000000000001,-0.009800000000000001,9.7902,-0.0005235987755982988,-0.00034906585039886593,0.00017453292519943296
1780294759.891343355,1780294759.890281200,-0.009800000000000001,-0.019600000000000003,9.7902,-0.00034906585039886593,-0.00034906585039886593,0.00034906585039886593
1780294759.903199434,1780294759.902252197,0.0,-0.029400000000000003,9.7902,-0.0005235987755982988,-0.0005235987755982988,0.00034906585039886593
1780294759.912540436,1780294759.909995079,0.0,-0.039200000000000006,9.8098,-0.00034906585039886593,-0.0005235987755982988,0.0005235987755982988
1780294759.924353123,1780294759.921915531,0.0,-0.029400000000000003,9.8098,-0.00034906585039886593,-0.00034906585039886593,0.0005235987755982988
1780294759.932986259,1780294759.930959940,0.009800000000000001,-0.029400000000000003,9.8098,-0.0005235987755982988,-0.0005235987755982988,0.0006981317007977319
1780294759.942800522,1780294759.941967249,0.009800000000000001,-0.029400000000000003,9.8,-0.00034906585039886593,-0.00034906585039886593,0.0005235987755982988
1780294759.950111151,1780294759.949890614,0.009800000000000001,-0.019600000000000003,9.7902,-0.00017453292519943296,-0.00034906585039886593,0.00034906585039886593
1780294759.962259054,1780294759.962051392,0.009800000000000001,-0.019600000000000003,9.7902,-0.00017453292519943296,-0.00034906585039886593,0.00034906585039886593
1780294759.972303391,1780294759.969865084,0.009800000000000001,-0.019600000000000003,9.7804,-0.00017453292519943296,-0.00034906585039886593,0.0
1780294759.983663321,1780294759.981910229,0.0,-0.029400000000000003,9.8,-0.00017453292519943296,-0.00017453292519943296,0.0
1780294759.990112543,1780294759.989895582,0.0,-0.029400000000000003,9.8,0.0,-0.0,0.0
1780294760.002707005,1780294760.002537966,0.0,-0.039200000000000006,9.8,-0.00017453292519943296,-0.00017453292519943296,0.0
1780294760.010178089,1780294760.009944916,0.0,-0.039200000000000006,9.8,0.0,-0.00017453292519943296,0.0
1780294760.022798777,1780294760.022217751,-0.009800000000000001,-0.039200000000000006,9.8098,0.0,-0.00017453292519943296,0.0
1780294760.029329538,1780294760.029159784,-0.009800000000000001,-0.049,9.7902,0.00017453292519943296,-0.00034906585039886593,0.00017453292519943296
1780294760.041657686,1780294760.040951729,-0.009800000000000001,-0.049,9.7902,0.00017453292519943296,-0.00017453292519943296,0.00034906585039886593
1780294760.050036669,1780294760.049854994,-0.009800000000000001,-0.029400000000000003,9.8,0.0,-0.00034906585039886593,0.00034906585039886593
1780294760.061545610,1780294760.061272621,-0.009800000000000001,-0.019600000000000003,9.7902,0.00017453292519943296,-0.00034906585039886593,0.00034906585039886593
1780294760.070185184,1780294760.069917679,0.0,0.0,9.8,0.00034906585039886593,-0.00034906585039886593,0.0005235987755982988
1780294760.080558300,1780294760.080328465,0.0,0.0,9.8,0.00017453292519943296,-0.00034906585039886593,0.00034906585039886593
1780294760.091348886,1780294760.091073513,-0.009800000000000001,0.009800000000000001,9.8,0.00017453292519943296,-0.00034906585039886593,0.00034906585039886593
1780294760.102201223,1780294760.101928234,0.0,0.009800000000000001,9.8,0.0,-0.00034906585039886593,0.0005235987755982988
1780294760.111095905,1780294760.110924482,-0.009800000000000001,0.029400000000000003,9.7902,0.0,-0.00034906585039886593,0.0005235987755982988
1780294760.123130798,1780294760.122936964,0.0,0.019600000000000003,9.7902,-0.00017453292519943296,-0.00017453292519943296,0.0005235987755982988
1780294760.131087780,1780294760.130917311,-0.009800000000000001,0.019600000000000003,9.7902,-0.00034906585039886593,-0.00034906585039886593,0.00034906585039886593
1780294760.142284393,1780294760.141941309,-0.009800000000000001,0.009800000000000001,9.8,-0.0005235987755982988,-0.00034906585039886593,0.00034906585039886593
1780294760.151130438,1780294760.150942087,-0.009800000000000001,0.0,9.8,-0.0005235987755982988,-0.00034906585039886593,0.00034906585039886593
1780294760.162074327,1780294760.161900997,-0.009800000000000001,0.0,9.8098,-0.0006981317007977319,-0.00034906585039886593,0.00034906585039886593
1780294760.171066046,1780294760.170874834,-0.009800000000000001,0.0,9.8,-0.0008726646259971648,-0.0005235987755982988,0.00017453292519943296
1780294760.181128502,1780294760.180968285,-0.009800000000000001,-0.009800000000000001,9.7902,-0.0006981317007977319,-0.00034906585039886593,0.00034906585039886593
1780294760.190349579,1780294760.190130234,-0.019600000000000003,-0.019600000000000003,9.7902,-0.0005235987755982988,-0.0005235987755982988,0.00017453292519943296
1780294760.205745220,1780294760.201956749,-0.019600000000000003,-0.019600000000000003,9.7804,-0.0006981317007977319,-0.0006981317007977319,0.0
1780294760.211038589,1780294760.210854292,-0.019600000000000003,-0.019600000000000003,9.7902,-0.00034906585039886593,-0.00034906585039886593,0.0
1780294760.221093655,1780294760.220899343,-0.019600000000000003,-0.029400000000000003,9.8,-0.0005235987755982988,-0.0006981317007977319,0.0
1780294760.231447458,1780294760.231011868,-0.009800000000000001,-0.029400000000000003,9.7902,-0.00034906585039886593,-0.0005235987755982988,0.0
1780294760.242144585,1780294760.241955042,0.0,-0.019600000000000003,9.8098,-0.0005235987755982988,-0.0006981317007977319,0.0
1780294760.250414610,1780294760.249890566,0.0,-0.029400000000000003,9.8098,-0.00034906585039886593,-0.0005235987755982988,0.0
1780294760.261219025,1780294760.260986805,0.0,-0.029400000000000003,9.8098,-0.00017453292519943296,-0.0005235987755982988,0.0
1780294760.286272049,1780294760.286087751,0.009800000000000001,-0.029400000000000003,9.8,-0.00034906585039886593,-0.0005235987755982988,-0.00017453292519943296
1780294760.297714949,1780294760.297200441,0.0,-0.049,9.7902,-0.00017453292519943296,-0.0005235987755982988,-0.00017453292519943296
1780294760.299866438,1780294760.299214363,0.0,-0.039200000000000006,9.7902,0.0,-0.0005235987755982988,0.0
1780294760.303732634,1780294760.302416801,0.0,-0.049,9.7902,-0.00017453292519943296,-0.0005235987755982988,0.0
1780294760.315519333,1780294760.313773394,0.0,-0.058800000000000005,9.8,0.0,-0.00034906585039886593,0.0
1780294760.322180271,1780294760.321961164,0.0,-0.049,9.8098,0.00017453292519943296,-0.00034906585039886593,0.0
1780294760.332199335,1780294760.331462383,0.009800000000000001,-0.049,9.8098,0.00017453292519943296,-0.00034906585039886593,0.0
1780294760.342055798,1780294760.341900587,0.0,-0.039200000000000006,9.8,0.00034906585039886593,-0.00034906585039886593,0.0
1780294760.350239515,1780294760.349911451,0.0,-0.039200000000000006,9.7902,0.00034906585039886593,-0.0005235987755982988,0.0
1780294760.360114098,1780294760.359894753,0.0,-0.029400000000000003,9.7902,0.0005235987755982988,-0.00034906585039886593,0.00034906585039886593
1780294760.370084763,1780294760.369900465,0.0,-0.019600000000000003,9.7902,0.0006981317007977319,-0.00034906585039886593,0.00017453292519943296
1780294760.382368326,1780294760.382173538,0.0,-0.019600000000000003,9.7902,0.0005235987755982988,-0.00034906585039886593,0.00034906585039886593
1780294760.390036821,1780294760.389847994,0.0,-0.009800000000000001,9.7902,0.00034906585039886593,-0.00034906585039886593,0.00034906585039886593
1780294760.403885841,1780294760.401895761,0.0,0.0,9.8098,0.0006981317007977319,-0.00034906585039886593,0.00034906585039886593
1780294760.411271811,1780294760.410571814,0.0,0.009800000000000001,9.819600000000001,0.00034906585039886593,-0.00034906585039886593,0.00017453292519943296
1780294760.422210217,1780294760.421873093,0.0,0.0,9.8098,0.00034906585039886593,-0.0005235987755982988,0.00017453292519943296
1780294760.429392815,1780294760.427855968,0.0,0.0,9.8098,0.00034906585039886593,-0.00034906585039886593,0.0
1780294760.445665836,1780294760.440878868,-0.009800000000000001,0.009800000000000001,9.7902,0.00017453292519943296,-0.00034906585039886593,0.0
1780294760.450618029,1780294760.449910879,-0.009800000000000001,0.009800000000000001,9.7902,0.00017453292519943296,-0.00034906585039886593,0.0
1780294760.464589834,1780294760.461944342,-0.009800000000000001,0.019600000000000003,9.7902,0.0,-0.00034906585039886593,0.0
1780294760.470225096,1780294760.469963789,-0.019600000000000003,0.009800000000000001,9.7902,0.0,-0.00034906585039886593,0.0
1780294760.487480640,1780294760.485843658,-0.029400000000000003,0.009800000000000001,9.7902,0.0,-0.00034906585039886593,0.0
1780294760.490548611,1780294760.489897251,-0.029400000000000003,0.0,9.7902,0.0,-0.00034906585039886593,0.0
1780294760.504565477,1780294760.501952410,-0.039200000000000006,0.0,9.8,0.0,-0.0005235987755982988,0.0
1780294760.511378765,1780294760.509902239,-0.029400000000000003,0.0,9.8,-0.00017453292519943296,-0.0006981317007977319,0.0
1780294760.522149801,1780294760.521934986,-0.029400000000000003,0.0,9.7902,-0.00017453292519943296,-0.0005235987755982988,0.0
1780294760.532103062,1780294760.530946970,-0.019600000000000003,-0.009800000000000001,9.7902,-0.00034906585039886593,-0.0006981317007977319,0.0
1780294760.542102337,1780294760.541884422,-0.009800000000000001,-0.009800000000000001,9.7902,-0.00034906585039886593,-0.0006981317007977319,0.00017453292519943296
1780294760.550086260,1780294760.549875975,-0.009800000000000001,-0.009800000000000001,9.7902,-0.0005235987755982988,-0.0005235987755982988,0.0
1780294760.563912392,1780294760.562063456,0.0,0.0,9.7902,-0.00017453292519943296,-0.00034906585039886593,0.0
1780294760.570263147,1780294760.569948673,0.0,-0.009800000000000001,9.8098,-0.00034906585039886593,-0.0005235987755982988,0.00017453292519943296
1780294760.584276438,1780294760.582010269,0.0,-0.019600000000000003,9.8,-0.00034906585039886593,-0.0005235987755982988,0.0
1780294760.590919018,1780294760.590766430,0.0,-0.019600000000000003,9.819600000000001,-0.00034906585039886593,-0.0005235987755982988,0.00017453292519943296
1780294760.602205038,1780294760.601979017,0.009800000000000001,-0.019600000000000003,9.8098,-0.00017453292519943296,-0.00034906585039886593,0.00034906585039886593
1780294760.610199928,1780294760.609977007,0.009800000000000001,-0.029400000000000003,9.8,-0.00017453292519943296,-0.00034906585039886593,0.00017453292519943296
1780294760.622404099,1780294760.621984720,0.009800000000000001,-0.029400000000000003,9.7902,-0.00017453292519943296,-0.00034906585039886593,0.00034906585039886593
1780294760.632252216,1780294760.631807566,0.009800000000000001,-0.019600000000000003,9.7902,0.0,-0.00034906585039886593,0.00034906585039886593
1780294760.642088652,1780294760.641963482,0.0,-0.029400000000000003,9.7804,0.0,-0.00034906585039886593,0.00017453292519943296
1780294760.656145573,1780294760.653845549,0.0,-0.019600000000000003,9.8,-0.00017453292519943296,-0.0005235987755982988,0.00017453292519943296
1780294760.662776470,1780294760.662147522,0.0,-0.029400000000000003,9.8098,0.0,-0.0005235987755982988,0.0
1780294760.670125723,1780294760.669855833,0.0,-0.029400000000000003,9.8098,0.0,-0.00034906585039886593,0.00017453292519943296
1780294760.682194233,1780294760.682001591,0.0,-0.029400000000000003,9.8098,0.0,-0.0005235987755982988,0.00017453292519943296
1780294760.690833807,1780294760.690023899,0.0,-0.019600000000000003,9.8,0.0,-0.0005235987755982988,0.00017453292519943296
1780294760.702486277,1780294760.702348709,0.0,-0.009800000000000001,9.8,0.00017453292519943296,-0.00034906585039886593,0.00017453292519943296
1780294760.710147142,1780294760.709890127,0.0,-0.019600000000000003,9.8,0.0,-0.0005235987755982988,0.00017453292519943296
1780294760.720175028,1780294760.719918251,0.0,-0.009800000000000001,9.8,0.0,-0.00034906585039886593,0.00017453292519943296
1780294760.731868267,1780294760.731069326,0.0,-0.009800000000000001,9.7902,0.0,-0.00034906585039886593,0.00017453292519943296
1780294760.740227699,1780294760.739938974,0.0,-0.009800000000000001,9.7902,0.00017453292519943296,-0.00034906585039886593,0.00034906585039886593
1780294760.750094414,1780294760.749875069,0.0,-0.009800000000000001,9.8,0.0,-0.00034906585039886593,0.00017453292519943296
1780294760.760840654,1780294760.760540009,0.0,0.0,9.8,0.0,-0.00034906585039886593,0.00017453292519943296
1780294760.770070791,1780294760.769918442,0.0,0.0,9.8,0.0,-0.00017453292519943296,0.00017453292519943296
1780294760.780200958,1780294760.779956102,0.0,0.0,9.7902,0.0,-0.00034906585039886593,0.00017453292519943296
1780294760.790577412,1780294760.789923906,0.0,0.009800000000000001,9.8,-0.00017453292519943296,-0.00034906585039886593,0.00017453292519943296
1780294760.802646160,1780294760.802433729,0.0,0.009800000000000001,9.7902,0.0,-0.00034906585039886593,0.00034906585039886593
1780294760.811201811,1780294760.810672283,0.0,0.009800000000000001,9.7902,-0.00034906585039886593,-0.00034906585039886593,0.00017453292519943296
1780294760.822143078,1780294760.821973801,0.0,0.0,9.8,-0.00017453292519943296,-0.0005235987755982988,0.0
1780294760.831697941,1780294760.830912828,-0.009800000000000001,0.0,9.7902,-0.0005235987755982988,-0.0005235987755982988,0.0
1780294760.840335846,1780294760.840131283,-0.009800000000000001,-0.009800000000000001,9.8,-0.00034906585039886593,-0.0005235987755982988,0.0
1780294760.850479841,1780294760.850289822,0.0,-0.009800000000000001,9.8,-0.00034906585039886593,-0.00034906585039886593,0.00017453292519943296
1780294760.860771894,1780294760.860513926,0.0,-0.009800000000000001,9.8,-0.0005235987755982988,-0.00034906585039886593,0.0
1780294760.870151281,1780294760.869838238,-0.009800000000000001,-0.019600000000000003,9.8,-0.0005235987755982988,-0.00034906585039886593,0.0
1780294760.880732298,1780294760.879958153,-0.009800000000000001,-0.039200000000000006,9.8,-0.0005235987755982988,-0.00034906585039886593,0.0
1780294760.890008211,1780294760.889842749,-0.009800000000000001,-0.029400000000000003,9.7902,-0.0005235987755982988,-0.0005235987755982988,0.0
1780294760.900666714,1780294760.900296211,-0.019600000000000003,-0.039200000000000006,9.7902,-0.00017453292519943296,-0.00034906585039886593,0.0
1780294760.912420511,1780294760.911175966,-0.019600000000000003,-0.049,9.7902,-0.00017453292519943296,-0.0005235987755982988,0.0
1780294760.920381069,1780294760.919919968,-0.019600000000000003,-0.039200000000000006,9.7902,-0.00017453292519943296,-0.0005235987755982988,0.0
1780294760.933232307,1780294760.930840969,-0.019600000000000003,-0.049,9.8098,0.0,-0.0005235987755982988,0.0
1780294760.942044735,1780294760.941906214,-0.009800000000000001,-0.039200000000000006,9.8098,0.0,-0.0005235987755982988,0.0
1780294760.950160503,1780294760.949939013,-0.009800000000000001,-0.049,9.7902,0.0,-0.0006981317007977319,0.00017453292519943296
1780294760.962333202,1780294760.961908817,-0.009800000000000001,-0.029400000000000003,9.7902,0.0,-0.0006981317007977319,0.00034906585039886593
1780294760.970838785,1780294760.969937801,-0.009800000000000001,-0.029400000000000003,9.8,0.00034906585039886593,-0.0006981317007977319,0.00017453292519943296
1780294760.980168819,1780294760.979894400,0.0,-0.029400000000000003,9.7902,0.0,-0.0006981317007977319,0.00017453292519943296
1780294760.990107298,1780294760.989872456,0.0,-0.019600000000000003,9.7902,0.00017453292519943296,-0.0005235987755982988,0.00034906585039886593
1780294761.005847931,1780294761.004246712,0.0,-0.009800000000000001,9.8,0.00034906585039886593,-0.0005235987755982988,0.00034906585039886593
1780294761.011388302,1780294761.010478258,0.0,0.0,9.7902,0.00034906585039886593,-0.0005235987755982988,0.0
1780294761.022592545,1780294761.022143364,0.0,0.0,9.8,0.0,-0.0005235987755982988,0.00017453292519943296
1780294761.031774521,1780294761.030973434,0.0,0.0,9.8098,0.0005235987755982988,-0.0005235987755982988,0.00017453292519943296
1780294761.044726133,1780294761.042386532,0.0,0.0,9.8,0.0,-0.0005235987755982988,0.0
1780294761.051120996,1780294761.050971508,0.0,0.0,9.7902,0.0,-0.00034906585039886593,0.00017453292519943296
1780294761.062108278,1780294761.061439037,0.0,0.0,9.8098,0.0,-0.0005235987755982988,0.00017453292519943296
1780294761.070167065,1780294761.069940329,0.0,0.0,9.8,0.0,-0.00034906585039886593,0.0
1780294761.081081867,1780294761.080939054,0.0,0.0,9.7804,0.0,-0.00034906585039886593,0.0
1780294761.090427399,1780294761.089698076,0.0,0.009800000000000001,9.8,0.0,-0.0005235987755982988,0.0
1780294761.102100611,1780294761.101899624,0.0,0.0,9.8,-0.00017453292519943296,-0.0005235987755982988,0.00017453292519943296
1780294761.109453917,1780294761.109256506,0.0,0.0,9.7804,0.0,-0.0005235987755982988,0.00017453292519943296
1780294761.122109890,1780294761.121948242,0.0,0.0,9.8098,-0.00017453292519943296,-0.00034906585039886593,0.00017453292519943296
1780294761.134603262,1780294761.134461403,0.0,-0.009800000000000001,9.8,-0.0005235987755982988,-0.00034906585039886593,0.00034906585039886593
1780294761.141960621,1780294761.141608000,0.0,0.0,9.7902,-0.00034906585039886593,-0.00034906585039886593,0.00017453292519943296
1780294761.151098728,1780294761.150869608,0.0,-0.009800000000000001,9.8098,-0.00017453292519943296,-0.00034906585039886593,0.00017453292519943296
1780294761.161339283,1780294761.161190748,0.0,-0.009800000000000001,9.8,-0.0005235987755982988,-0.0005235987755982988,0.00017453292519943296
1780294761.171157598,1780294761.170871973,0.0,-0.009800000000000001,9.7902,-0.00017453292519943296,-0.00017453292519943296,0.00017453292519943296
1780294761.182042360,1780294761.181884527,-0.009800000000000001,-0.019600000000000003,9.7902,-0.00017453292519943296,-0.00017453292519943296,0.00017453292519943296
1780294761.190334320,1780294761.190120697,0.0,-0.019600000000000003,9.7902,-0.0005235987755982988,-0.00017453292519943296,0.0
1780294761.202111959,1780294761.201941013,0.0,-0.029400000000000003,9.8,-0.00017453292519943296,-0.00017453292519943296,0.0
1780294761.211327791,1780294761.211146355,-0.009800000000000001,-0.029400000000000003,9.8,-0.00034906585039886593,-0.00034906585039886593,0.00017453292519943296
1780294761.222601891,1780294761.222007275,-0.009800000000000001,-0.029400000000000003,9.8,-0.00034906585039886593,-0.00034906585039886593,0.00017453292519943296
1780294761.232295513,1780294761.229691744,-0.019600000000000003,-0.039200000000000006,9.7902,-0.00017453292519943296,-0.00034906585039886593,0.00034906585039886593
1780294761.241025448,1780294761.240845203,-0.019600000000000003,-0.039200000000000006,9.8098,-0.00017453292519943296,-0.00034906585039886593,0.00034906585039886593
1780294761.250447512,1780294761.250081301,-0.019600000000000003,-0.029400000000000003,9.7902,-0.00017453292519943296,-0.00034906585039886593,0.00017453292519943296
1780294761.262134552,1780294761.261941195,-0.009800000000000001,-0.039200000000000006,9.8,0.0,-0.00034906585039886593,0.0
1780294761.271727800,1780294761.271019220,-0.009800000000000001,-0.029400000000000003,9.8,0.0,-0.0005235987755982988,0.0
1780294761.298886538,1780294761.297597885,-0.009800000000000001,-0.039200000000000006,9.7902,0.0,-0.0005235987755982988,0.0
1780294761.303829908,1780294761.303642750,-0.009800000000000001,-0.039200000000000006,9.7902,0.0,-0.0005235987755982988,0.00017453292519943296
1780294761.308299303,1780294761.306423664,-0.009800000000000001,-0.019600000000000003,9.8,0.0,-0.0005235987755982988,0.00017453292519943296
1780294761.313133240,1780294761.312856197,-0.009800000000000001,-0.019600000000000003,9.8,0.0,-0.0005235987755982988,0.00017453292519943296
1780294761.322596312,1780294761.322397709,0.0,-0.019600000000000003,9.8098,0.0,-0.0005235987755982988,0.00017453292519943296
1780294761.331028700,1780294761.330830336,0.0,-0.019600000000000003,9.8098,0.0,-0.0005235987755982988,0.00017453292519943296
1780294761.342968225,1780294761.342716932,0.0,-0.009800000000000001,9.8,0.0,-0.0005235987755982988,0.0
1780294761.350086927,1780294761.349875450,0.0,0.0,9.7804,0.0,-0.0005235987755982988,0.0
1780294761.360259295,1780294761.360075235,0.0,0.0,9.7902,0.0,-0.0005235987755982988,0.0
1780294761.370391130,1780294761.369952679,0.0,0.0,9.8,0.0,-0.0005235987755982988,0.0
1780294761.389272928,1780294761.385554552,0.0,0.0,9.8,-0.00017453292519943296,-0.00034906585039886593,0.0
1780294761.390578508,1780294761.390371561,0.0,0.0,9.8,-0.00017453292519943296,-0.00034906585039886593,0.00017453292519943296
1780294761.402303696,1780294761.402081251,0.0,0.0,9.8098,-0.00034906585039886593,-0.0005235987755982988,0.00017453292519943296
1780294761.411095142,1780294761.410824776,0.0,0.0,9.7902,0.0,-0.0005235987755982988,0.0
1780294761.420318127,1780294761.420020342,0.0,0.0,9.8,-0.00017453292519943296,-0.0005235987755982988,0.0
1780294761.430119753,1780294761.429887772,0.0,0.0,9.8,-0.0005235987755982988,-0.0005235987755982988,0.0
1780294761.442257404,1780294761.442070723,0.0,-0.009800000000000001,9.8,0.0,-0.0005235987755982988,0.0
1780294761.450306177,1780294761.450148582,0.0,-0.019600000000000003,9.7902,-0.00017453292519943296,-0.00034906585039886593,0.00017453292519943296
1780294761.463010788,1780294761.462142944,0.0,-0.019600000000000003,9.8,-0.0005235987755982988,-0.00034906585039886593,0.0
1780294761.471464634,1780294761.470730305,0.0,-0.019600000000000003,9.8,-0.00017453292519943296,-0.00034906585039886593,0.00017453292519943296
1780294761.482499123,1780294761.482268810,0.0,-0.029400000000000003,9.8098,-0.00034906585039886593,-0.00034906585039886593,0.0
1780294761.491245985,1780294761.490993023,0.0,-0.039200000000000006,9.8,-0.00017453292519943296,-0.00034906585039886593,0.0
1780294761.509426832,1780294761.504789114,0.0,-0.039200000000000006,9.8,-0.00017453292519943296,-0.0005235987755982988,0.0
1780294761.513255119,1780294761.512061119,0.0,-0.039200000000000006,9.7902,0.0,-0.00034906585039886593,0.0
1780294761.522629976,1780294761.522096872,0.0,-0.039200000000000006,9.8,0.0,-0.00034906585039886593,0.0
1780294761.531379938,1780294761.531062603,-0.009800000000000001,-0.049,9.7902,0.00017453292519943296,-0.00034906585039886593,0.00017453292519943296
1780294761.542587996,1780294761.540052176,0.0,-0.039200000000000006,9.8,0.0,-0.0005235987755982988,0.0
1780294761.552016020,1780294761.551510334,-0.009800000000000001,-0.029400000000000003,9.8,0.0,-0.0005235987755982988,0.00017453292519943296
1780294761.564743280,1780294761.562137127,0.0,-0.019600000000000003,9.819600000000001,0.00017453292519943296,-0.00034906585039886593,0.00034906585039886593
1780294761.570045948,1780294761.569853544,0.0,-0.019600000000000003,9.8,0.00034906585039886593,-0.0005235987755982988,0.00034906585039886593
1780294761.582638979,1780294761.582390785,0.0,-0.019600000000000003,9.8,0.00017453292519943296,-0.00034906585039886593,0.00017453292519943296
1780294761.590047836,1780294761.589867830,0.0,-0.009800000000000001,9.7902,0.00034906585039886593,-0.00034906585039886593,0.00017453292519943296
1780294761.602300167,1780294761.601402521,-0.009800000000000001,0.0,9.7902,0.00017453292519943296,-0.00034906585039886593,0.00034906585039886593
1780294761.610128641,1780294761.609931469,0.0,0.0,9.7902,0.00017453292519943296,-0.00034906585039886593,0.00017453292519943296
1780294761.620245457,1780294761.620027781,0.0,0.0,9.7902,0.0,-0.00034906585039886593,0.00017453292519943296
1780294761.631085873,1780294761.630888939,0.0,0.019600000000000003,9.8,0.0,-0.00034906585039886593,0.00034906585039886593
1780294761.641237020,1780294761.641064644,0.0,0.009800000000000001,9.7902,-0.00017453292519943296,-0.00034906585039886593,0.00017453292519943296
1780294761.650515795,1780294761.650221109,-0.009800000000000001,0.009800000000000001,9.8098,0.0,-0.00034906585039886593,0.00017453292519943296
1780294761.662306786,1780294761.662095070,-0.009800000000000001,0.019600000000000003,9.8,-0.00017453292519943296,-0.00034906585039886593,0.00017453292519943296
1780294761.680727243,1780294761.669935465,-0.019600000000000003,0.0,9.7902,-0.00034906585039886593,-0.00034906585039886593,0.0
1780294761.685064316,1780294761.684496641,-0.019600000000000003,0.0,9.7902,-0.00034906585039886593,-0.00034906585039886593,0.00017453292519943296
1780294761.690558434,1780294761.690226555,-0.009800000000000001,0.0,9.7804,-0.0005235987755982988,-0.00034906585039886593,0.00017453292519943296
1780294761.703621149,1780294761.700207710,-0.009800000000000001,0.0,9.7902,-0.0005235987755982988,-0.0005235987755982988,0.0
1780294761.711416483,1780294761.710076571,0.0,-0.009800000000000001,9.8,-0.0005235987755982988,-0.0005235987755982988,0.00017453292519943296
1780294761.726582050,1780294761.721968412,-0.009800000000000001,-0.009800000000000001,9.7902,-0.0006981317007977319,-0.0005235987755982988,0.0
1780294761.731451273,1780294761.731051683,-0.019600000000000003,-0.009800000000000001,9.8,-0.00034906585039886593,-0.0005235987755982988,0.0
1780294761.742093086,1780294761.741864443,-0.009800000000000001,-0.029400000000000003,9.8,-0.0005235987755982988,-0.0005235987755982988,0.0
1780294761.752032042,1780294761.750235796,0.0,-0.029400000000000003,9.8,-0.0005235987755982988,-0.0005235987755982988,0.0
1780294761.760439157,1780294761.760303497,0.0,-0.029400000000000003,9.7902,-0.0005235987755982988,-0.0005235987755982988,0.00017453292519943296
1780294761.770128012,1780294761.769912481,0.0,-0.039200000000000006,9.8098,-0.00034906585039886593,-0.0005235987755982988,0.0
1780294761.780725718,1780294761.780048847,0.0,-0.049,9.8,-0.00034906585039886593,-0.0005235987755982988,0.00017453292519943296
1780294761.790180206,1780294761.789951324,0.0,-0.039200000000000006,9.8,-0.00017453292519943296,-0.0005235987755982988,0.0
1780294761.801008463,1780294761.800728321,0.0,-0.039200000000000006,9.8,-0.00017453292519943296,-0.0005235987755982988,0.00017453292519943296
1780294761.812396049,1780294761.810499907,0.0,-0.049,9.8,0.0,-0.00034906585039886593,0.0
1780294761.822086573,1780294761.821944237,0.0,-0.058800000000000005,9.8,0.0,-0.00034906585039886593,0.0
1780294761.831062555,1780294761.830831051,0.0,-0.049,9.8098,0.00017453292519943296,-0.0005235987755982988,0.0
1780294761.842354774,1780294761.841986179,-0.009800000000000001,-0.049,9.8,0.00017453292519943296,-0.0005235987755982988,0.0
1780294761.852349520,1780294761.850995064,0.0,-0.039200000000000006,9.7902,0.00034906585039886593,-0.0005235987755982988,0.00017453292519943296
1780294761.862315655,1780294761.862165689,0.0,-0.029400000000000003,9.7902,0.00034906585039886593,-0.0005235987755982988,0.00017453292519943296
1780294761.870160580,1780294761.869899273,0.0,-0.019600000000000003,9.8,0.00034906585039886593,-0.0005235987755982988,0.00034906585039886593
1780294761.882305622,1780294761.882051945,0.0,-0.009800000000000001,9.7902,0.00034906585039886593,-0.00034906585039886593,0.00034906585039886593
1780294761.890316963,1780294761.889966011,0.0,-0.009800000000000001,9.8,0.0005235987755982988,-0.0005235987755982988,0.00017453292519943296
1780294761.902056932,1780294761.901874542,0.0,0.0,9.8,0.00034906585039886593,-0.0005235987755982988,0.00017453292519943296
1780294761.911727905,1780294761.910292625,0.0,0.0,9.7902,0.00034906585039886593,-0.0005235987755982988,0.00017453292519943296
